reward_today,future_reward,delay,trials.thisRepN,trials.thisTrialN,trials.thisN,trials.thisIndex,thisRow.t,notes,trial.started,fixation.started,text.started,key_resp.started,fixation.stopped,trial.stopped,key_resp.keys,key_resp.rt,key_resp.duration,participant,session,date,expName,psychopyVersion,frameRate,expStart,
27,50,21,0,0,0,2,0.053576899983454496,,0.010046399955172092,0.053576899983454496,1.009180599998217,1.009180599998217,1.059143699996639,5.867498999985401,l,4.840993299963884,None,21,001,2024-11-20_20h35.45.973,delay discounting task,2024.1.5,None,2024-11-20 20h35.59.146832 +0530,
67,75,119,0,1,1,5,5.881479999981821,,5.868810599960852,5.881479999981821,6.875955800001975,6.875955800001975,6.89280879998114,7.443831099953968,t,0.5550574000226334,None,21,001,2024-11-20_20h35.45.973,delay discounting task,2024.1.5,None,2024-11-20 20h35.59.146832 +0530,
11,30,7,0,2,2,0,7.4592384999850765,,7.444497899967246,7.4592384999850765,8.459551299980376,8.459551299980376,8.459551299980376,8.910946199961472,l,0.4396069999784231,None,21,001,2024-11-20_20h35.45.973,delay discounting task,2024.1.5,None,2024-11-20 20h35.59.146832 +0530,
49,60,89,0,3,3,4,8.926157100009732,,8.911997199989855,8.926157100009732,9.926254999998491,9.926254999998491,9.926254999998491,10.244188499986194,t,0.3039503999752924,None,21,001,2024-11-20_20h35.45.973,delay discounting task,2024.1.5,None,2024-11-20 20h35.59.146832 +0530,
78,80,162,0,4,4,6,10.259297199954744,,10.24512279999908,10.259297199954744,11.259528599970508,11.259528599970508,11.259528599970508,12.111091999977361,l,0.8476777000469156,None,21,001,2024-11-20_20h35.45.973,delay discounting task,2024.1.5,None,2024-11-20 20h35.59.146832 +0530,
40,55,62,0,5,5,3,12.126190099981613,,12.112023499968927,12.126190099981613,13.126347299956251,13.126347299956251,13.126347299956251,13.744079099968076,t,0.6027897000312805,None,21,001,2024-11-20_20h35.45.973,delay discounting task,2024.1.5,None,2024-11-20 20h35.59.146832 +0530,
15,35,13,0,6,6,1,13.759623799996916,,13.744661299977452,13.759623799996916,14.75971529999515,14.75971529999515,14.75971529999515,15.244089099986013,t,0.46844749996671453,None,21,001,2024-11-20_20h35.45.973,delay discounting task,2024.1.5,None,2024-11-20 20h35.59.146832 +0530,
67,75,119,1,0,7,5,15.25967539998237,,15.244668399973307,15.25967539998237,16.259714899992105,16.259714899992105,16.259714899992105,16.877332300005946,l,0.6132038999930955,None,21,001,2024-11-20_20h35.45.973,delay discounting task,2024.1.5,None,2024-11-20 20h35.59.146832 +0530,
15,35,13,1,1,8,1,16.892982699966524,,16.878024799982086,16.892982699966524,17.893128099967726,17.893128099967726,17.893128099967726,18.67758610000601,t,0.7719523999840021,None,21,001,2024-11-20_20h35.45.973,delay discounting task,2024.1.5,None,2024-11-20 20h35.59.146832 +0530,
40,55,62,1,2,9,3,18.693063899991103,,18.67851589998463,18.693063899991103,19.693132499989588,19.693132499989588,19.693132499989588,20.34424379997654,l,0.6448912999476306,None,21,001,2024-11-20_20h35.45.973,delay discounting task,2024.1.5,None,2024-11-20 20h35.59.146832 +0530,
11,30,7,1,3,10,0,20.35976949997712,,20.344824099971447,20.35976949997712,21.359967799973674,21.359967799973674,21.359967799973674,21.79430109995883,t,0.4184709999826737,None,21,001,2024-11-20_20h35.45.973,delay discounting task,2024.1.5,None,2024-11-20 20h35.59.146832 +0530,
27,50,21,1,4,11,2,21.809652699972503,,21.794879299995955,21.809652699972503,22.809679199999664,22.809679199999664,22.809679199999664,23.47768869996071,t,0.6540388000430539,None,21,001,2024-11-20_20h35.45.973,delay discounting task,2024.1.5,None,2024-11-20 20h35.59.146832 +0530,
49,60,89,1,5,12,4,23.49303009995492,,23.47826800000621,23.49303009995492,24.493153299961705,24.493153299961705,24.493153299961705,24.994400099967606,l,0.49670590000459924,None,21,001,2024-11-20_20h35.45.973,delay discounting task,2024.1.5,None,2024-11-20 20h35.59.146832 +0530,
78,80,162,1,6,13,6,25.010025599971414,,24.995089199976064,25.010025599971414,26.009844599990174,26.009844599990174,26.009844599990174,26.527821699972264,l,0.5095560000045225,None,21,001,2024-11-20_20h35.45.973,delay discounting task,2024.1.5,None,2024-11-20 20h35.59.146832 +0530,
11,30,7,2,0,14,0,26.54328969999915,,26.528397599991877,26.54328969999915,27.54337490000762,27.54337490000762,27.54337490000762,30.111253799987026,t,2.5668233999749646,None,21,001,2024-11-20_20h35.45.973,delay discounting task,2024.1.5,None,2024-11-20 20h35.59.146832 +0530,
40,55,62,2,1,15,3,30.126757199992426,,30.111921600007918,30.126757199992426,31.126781700004358,31.126781700004358,31.126781700004358,32.227929799992125,l,1.0942808000254445,None,21,001,2024-11-20_20h35.45.973,delay discounting task,2024.1.5,None,2024-11-20 20h35.59.146832 +0530,
49,60,89,2,2,16,4,32.243285099975765,,32.22853689995827,32.243285099975765,33.24373619997641,33.24373619997641,33.24373619997641,33.8298656999832,l,0.5690078000188805,None,21,001,2024-11-20_20h35.45.973,delay discounting task,2024.1.5,None,2024-11-20 20h35.59.146832 +0530,
15,35,13,2,3,17,1,33.84704329998931,,33.83185959997354,33.84704329998931,34.84379309997894,34.84379309997894,34.860536099993624,35.744883199979085,t,0.8947524999966845,None,21,001,2024-11-20_20h35.45.973,delay discounting task,2024.1.5,None,2024-11-20 20h35.59.146832 +0530,
78,80,162,2,4,18,6,35.7602571999887,,35.74571149999974,35.7602571999887,36.760306699958164,36.760306699958164,36.760306699958164,37.66165849997196,l,0.8930045000161044,None,21,001,2024-11-20_20h35.45.973,delay discounting task,2024.1.5,None,2024-11-20 20h35.59.146832 +0530,
27,50,21,2,5,19,2,37.67699639999773,,37.66248579998501,37.67699639999773,38.677043900010176,38.677043900010176,38.677043900010176,41.113166700000875,t,2.4262974999728613,None,21,001,2024-11-20_20h35.45.973,delay discounting task,2024.1.5,None,2024-11-20 20h35.59.146832 +0530,
67,75,119,2,6,20,5,41.131753199966624,,41.11482449999312,41.131753199966624,42.127053099975456,42.127053099975456,42.1437265999848,42.72824619995663,l,0.5858750999905169,None,21,001,2024-11-20_20h35.45.973,delay discounting task,2024.1.5,None,2024-11-20 20h35.59.146832 +0530,
40,55,62,3,0,21,3,42.743740600009914,,42.728819599957205,42.743740600009914,43.743865599972196,43.743865599972196,43.743865599972196,45.81168589997105,l,2.0609101000009105,None,21,001,2024-11-20_20h35.45.973,delay discounting task,2024.1.5,None,2024-11-20 20h35.59.146832 +0530,
15,35,13,3,1,22,1,45.826998899981845,,45.812258399964776,45.826998899981845,46.82725749997189,46.82725749997189,46.82725749997189,48.31155749998288,t,1.4708279999904335,None,21,001,2024-11-20_20h35.45.973,delay discounting task,2024.1.5,None,2024-11-20 20h35.59.146832 +0530,
78,80,162,3,2,23,6,48.32726220000768,,48.31219839997357,48.32726220000768,49.32732549996581,49.32732549996581,49.32732549996581,50.32834259996889,t,0.9997928999946453,None,21,001,2024-11-20_20h35.45.973,delay discounting task,2024.1.5,None,2024-11-20 20h35.59.146832 +0530,
49,60,89,3,3,24,4,50.34391489997506,,50.32901389995823,50.34391489997506,51.344061799987685,51.344061799987685,51.344061799987685,51.863159200001974,l,0.5028279999969527,None,21,001,2024-11-20_20h35.45.973,delay discounting task,2024.1.5,None,2024-11-20 20h35.59.146832 +0530,
11,30,7,3,4,25,0,51.88126429996919,,51.864964599953964,51.88126429996919,52.8775129999849,52.8775129999849,52.89414529997157,53.34524299995974,t,0.45883459999458864,None,21,001,2024-11-20_20h35.45.973,delay discounting task,2024.1.5,None,2024-11-20 20h35.59.146832 +0530,
27,50,21,3,5,26,2,53.36057459999574,,53.34596839995356,53.36057459999574,54.3607640999835,54.3607640999835,54.3607640999835,54.67897439998342,l,0.3169748000218533,None,21,001,2024-11-20_20h35.45.973,delay discounting task,2024.1.5,None,2024-11-20 20h35.59.146832 +0530,
67,75,119,3,6,27,5,54.693926999985706,,54.67955339996843,54.693926999985706,55.69421039998997,55.69421039998997,55.69421039998997,55.978598699963186,t,0.27794330002507195,None,21,001,2024-11-20_20h35.45.973,delay discounting task,2024.1.5,None,2024-11-20 20h35.59.146832 +0530,
49,60,89,4,0,28,4,55.99414279998746,,55.97917489998508,55.99414279998746,56.99404209997738,56.99404209997738,56.99404209997738,57.378617499955,l,0.3757391000399366,None,21,001,2024-11-20_20h35.45.973,delay discounting task,2024.1.5,None,2024-11-20 20h35.59.146832 +0530,
11,30,7,4,1,29,0,57.39400339999702,,57.37929789995542,57.39400339999702,58.39446699997643,58.39446699997643,58.39446699997643,58.66228509997018,l,0.2558795000077225,None,21,001,2024-11-20_20h35.45.973,delay discounting task,2024.1.5,None,2024-11-20 20h35.59.146832 +0530,
27,50,21,4,2,30,2,58.67741179995937,,58.66324339999119,58.67741179995937,59.67770219995873,59.67770219995873,59.67770219995873,60.062681399984285,l,0.38328870001714677,None,21,001,2024-11-20_20h35.45.973,delay discounting task,2024.1.5,None,2024-11-20 20h35.59.146832 +0530,
15,35,13,4,3,31,1,60.07765880000079,,60.06378899997799,60.07765880000079,61.07774239999708,61.07774239999708,61.07774239999708,61.2956370000029,l,0.21684329997515306,None,21,001,2024-11-20_20h35.45.973,delay discounting task,2024.1.5,None,2024-11-20 20h35.59.146832 +0530,
78,80,162,4,4,32,6,61.31093679997139,,61.29632979998132,61.31093679997139,62.3109509999631,62.3109509999631,62.3109509999631,62.86226339999121,t,0.548984199995175,None,21,001,2024-11-20_20h35.45.973,delay discounting task,2024.1.5,None,2024-11-20 20h35.59.146832 +0530,
40,55,62,4,5,33,3,62.87767969997367,,62.8628056999878,62.87767969997367,63.87779989995761,63.87779989995761,63.87779989995761,64.14561119995778,t,0.26538229995639995,None,21,001,2024-11-20_20h35.45.973,delay discounting task,2024.1.5,None,2024-11-20 20h35.59.146832 +0530,
67,75,119,4,6,34,5,64.1610552999773,,64.14618899999186,64.1610552999773,65.16110599995591,65.16110599995591,65.16110599995591,65.3456629999564,l,0.1832602999638766,None,21,001,2024-11-20_20h35.45.973,delay discounting task,2024.1.5,None,2024-11-20 20h35.59.146832 +0530,
67,75,119,5,0,35,5,65.36104190000333,,65.34634729998652,65.36104190000333,66.36118199996417,66.36118199996417,66.36118199996417,66.82886299997335,t,0.4510359999840148,None,21,001,2024-11-20_20h35.45.973,delay discounting task,2024.1.5,None,2024-11-20 20h35.59.146832 +0530,
78,80,162,5,1,36,6,66.8442544999998,,66.82944589998806,66.8442544999998,67.84457680000924,67.84457680000924,67.84457680000924,68.4957662000088,l,0.6480008999933489,None,21,001,2024-11-20_20h35.45.973,delay discounting task,2024.1.5,None,2024-11-20 20h35.59.146832 +0530,
11,30,7,5,2,37,0,68.51116599998204,,68.49672629998531,68.51116599998204,69.51127610000549,69.51127610000549,69.51127610000549,69.72891800000798,l,0.20748889999231324,None,21,001,2024-11-20_20h35.45.973,delay discounting task,2024.1.5,None,2024-11-20 20h35.59.146832 +0530,
15,35,13,5,3,38,1,69.74457919999259,,69.72949239995796,69.74457919999259,70.74468999996316,70.74468999996316,70.74468999996316,71.29571839998243,t,0.5459299000212923,None,21,001,2024-11-20_20h35.45.973,delay discounting task,2024.1.5,None,2024-11-20 20h35.59.146832 +0530,
40,55,62,5,4,39,3,71.31118109996896,,71.29628859995864,71.31118109996896,72.31115480000153,72.31115480000153,72.31115480000153,72.74568529997487,t,0.4252822000416927,None,21,001,2024-11-20_20h35.45.973,delay discounting task,2024.1.5,None,2024-11-20 20h35.59.146832 +0530,
49,60,89,5,5,40,4,72.76128469995456,,72.7462644999614,72.76128469995456,73.76136679999763,73.76136679999763,73.76136679999763,74.52925919997506,l,0.7544647000031546,None,21,001,2024-11-20_20h35.45.973,delay discounting task,2024.1.5,None,2024-11-20 20h35.59.146832 +0530,
27,50,21,5,6,41,2,74.54476819996489,,74.52983700000914,74.54476819996489,75.54488949995721,75.54488949995721,75.54488949995721,75.78032499999972,t,0.23315479996381328,None,21,001,2024-11-20_20h35.45.973,delay discounting task,2024.1.5,None,2024-11-20 20h35.59.146832 +0530,
11,30,7,6,0,42,0,75.79468449996784,,75.781283099961,75.79468449996784,76.79477079998469,76.79477079998469,76.79477079998469,76.94580859999405,t,0.14414109999779612,None,21,001,2024-11-20_20h35.45.973,delay discounting task,2024.1.5,None,2024-11-20 20h35.59.146832 +0530,
15,35,13,6,1,43,1,76.96142119995784,,76.94638529996155,76.96142119995784,77.96143989998382,77.96143989998382,77.96143989998382,78.27927009999985,l,0.3035651000100188,None,21,001,2024-11-20_20h35.45.973,delay discounting task,2024.1.5,None,2024-11-20 20h35.59.146832 +0530,
27,50,21,6,2,44,2,78.29493129998446,,78.27987929998199,78.29493129998446,79.29497909999918,79.29497909999918,79.29497909999918,79.61249249998946,l,0.30547000002115965,None,21,001,2024-11-20_20h35.45.973,delay discounting task,2024.1.5,None,2024-11-20 20h35.59.146832 +0530,
78,80,162,6,3,45,6,79.62821639998583,,79.61306329997024,79.62821639998583,80.62823189998744,80.62823189998744,80.62823189998744,80.92938149999827,l,0.30012729996815324,None,21,001,2024-11-20_20h35.45.973,delay discounting task,2024.1.5,None,2024-11-20 20h35.59.146832 +0530,
49,60,89,6,4,46,4,80.9447507999721,,80.92995620000875,80.9447507999721,81.94476829998894,81.94476829998894,81.94476829998894,82.21274220000487,t,0.26596310001332313,None,21,001,2024-11-20_20h35.45.973,delay discounting task,2024.1.5,None,2024-11-20 20h35.59.146832 +0530,
67,75,119,6,5,47,5,82.22822589997668,,82.21341579995351,82.22822589997668,83.22842649999075,83.22842649999075,83.22842649999075,83.57946300000185,l,0.34068259998457506,None,21,001,2024-11-20_20h35.45.973,delay discounting task,2024.1.5,None,2024-11-20 20h35.59.146832 +0530,
40,55,62,6,6,48,3,83.5948932999745,,83.58003819995793,83.5948932999745,84.59508389997063,84.59508389997063,84.59508389997063,84.89603639999405,l,0.29593779996503145,None,21,001,2024-11-20_20h35.45.973,delay discounting task,2024.1.5,None,2024-11-20 20h35.59.146832 +0530,
67,75,119,7,0,49,5,84.91167149995454,,84.8966064999695,84.91167149995454,85.91168869996909,85.91168869996909,85.91168869996909,86.19615779997548,t,0.2732554000103846,None,21,001,2024-11-20_20h35.45.973,delay discounting task,2024.1.5,None,2024-11-20 20h35.59.146832 +0530,
78,80,162,7,1,50,6,86.21173019998241,,86.19673759996658,86.21173019998241,87.21170169999823,87.21170169999823,87.21170169999823,87.52942969999276,l,0.3069328999845311,None,21,001,2024-11-20_20h35.45.973,delay discounting task,2024.1.5,None,2024-11-20 20h35.59.146832 +0530,
15,35,13,7,2,51,1,87.54493360000197,,87.53000389999943,87.54493360000197,88.5451590999728,88.5451590999728,88.5451590999728,88.79626400000416,l,0.23676729999715462,None,21,001,2024-11-20_20h35.45.973,delay discounting task,2024.1.5,None,2024-11-20 20h35.59.146832 +0530,
11,30,7,7,3,52,0,88.81171169999288,,88.79684309998993,88.81171169999288,89.81175920000533,89.81175920000533,89.81175920000533,90.029604499985,t,0.20042900001863018,None,21,001,2024-11-20_20h35.45.973,delay discounting task,2024.1.5,None,2024-11-20 20h35.59.146832 +0530,
40,55,62,7,4,53,3,90.04511659999844,,90.030185599986,90.04511659999844,91.04516629996942,91.04516629996942,91.04516629996942,91.34632599999895,t,0.29519170004641637,None,21,001,2024-11-20_20h35.45.973,delay discounting task,2024.1.5,None,2024-11-20 20h35.59.146832 +0530,
49,60,89,7,5,54,4,91.36177039996255,,91.34690599999158,91.36177039996255,92.36187069996959,92.36187069996959,92.36187069996959,92.67957420001039,t,0.3042598000029102,None,21,001,2024-11-20_20h35.45.973,delay discounting task,2024.1.5,None,2024-11-20 20h35.59.146832 +0530,
27,50,21,7,6,55,2,92.69515729998238,,92.68015579995699,92.69515729998238,93.69529790000524,93.69529790000524,93.69529790000524,93.9128756999853,l,0.21021960000507534,None,21,001,2024-11-20_20h35.45.973,delay discounting task,2024.1.5,None,2024-11-20 20h35.59.146832 +0530,
67,75,119,8,0,56,5,93.92852739995578,,93.91357779997634,93.92852739995578,94.92864769999869,94.92864769999869,94.92864769999869,95.24644489999628,t,0.30334600002970546,None,21,001,2024-11-20_20h35.45.973,delay discounting task,2024.1.5,None,2024-11-20 20h35.59.146832 +0530,
27,50,21,8,1,57,2,95.26190379995387,,95.24702249997063,95.26190379995387,96.26200759998756,96.26200759998756,96.26200759998756,96.5128560999874,t,0.24272579996613786,None,21,001,2024-11-20_20h35.45.973,delay discounting task,2024.1.5,None,2024-11-20 20h35.59.146832 +0530,
15,35,13,8,2,58,1,96.52862489997642,,96.51342749997275,96.52862489997642,97.52864819997922,97.52864819997922,97.52864819997922,97.77929809998022,l,0.23800740001024678,None,21,001,2024-11-20_20h35.45.973,delay discounting task,2024.1.5,None,2024-11-20 20h35.59.146832 +0530,
40,55,62,8,3,59,3,97.79550939996261,,97.78002869995544,97.79550939996261,98.79533459997037,98.79533459997037,98.79533459997037,99.21323489997303,t,0.4050099999876693,None,21,001,2024-11-20_20h35.45.973,delay discounting task,2024.1.5,None,2024-11-20 20h35.59.146832 +0530,
11,30,7,8,4,60,0,99.22854219999863,,99.2138095999835,99.22854219999863,100.22876319999341,100.22876319999341,100.22876319999341,100.3797835999867,t,0.14811770000960678,None,21,001,2024-11-20_20h35.45.973,delay discounting task,2024.1.5,None,2024-11-20 20h35.59.146832 +0530,
78,80,162,8,5,61,6,100.39522079995368,,100.38036149996333,100.39522079995368,101.39551949995803,101.39551949995803,101.39551949995803,101.82992839999497,l,0.4251815999741666,None,21,001,2024-11-20_20h35.45.973,delay discounting task,2024.1.5,None,2024-11-20 20h35.59.146832 +0530,
49,60,89,8,6,62,4,101.8454272999661,,101.83051179995527,101.8454272999661,102.84556089999387,102.84556089999387,102.84556089999387,103.0966523999814,l,0.24560140003450215,None,21,001,2024-11-20_20h35.45.973,delay discounting task,2024.1.5,None,2024-11-20 20h35.59.146832 +0530,
27,50,21,9,0,63,2,103.11212639999576,,103.09722699999111,103.11212639999576,104.11205689999042,104.11205689999042,104.11205689999042,104.34654569998384,l,0.22035259997937828,None,21,001,2024-11-20_20h35.45.973,delay discounting task,2024.1.5,None,2024-11-20 20h35.59.146832 +0530,
15,35,13,9,1,64,1,104.36221509997267,,104.34721189999254,104.36221509997267,105.3622747999616,105.3622747999616,105.3622747999616,105.61341359996004,t,0.2431741000036709,None,21,001,2024-11-20_20h35.45.973,delay discounting task,2024.1.5,None,2024-11-20 20h35.59.146832 +0530,
67,75,119,9,2,65,5,105.62879089999478,,105.6141497999779,105.62879089999478,106.62888979999116,106.62888979999116,106.62888979999116,106.91341839998495,l,0.2796813999884762,None,21,001,2024-11-20_20h35.45.973,delay discounting task,2024.1.5,None,2024-11-20 20h35.59.146832 +0530,
78,80,162,9,3,66,6,106.92875009996351,,106.91406079998706,106.92875009996351,107.92897919996176,107.92897919996176,107.92897919996176,108.29686269996455,l,0.3637958000181243,None,21,001,2024-11-20_20h35.45.973,delay discounting task,2024.1.5,None,2024-11-20 20h35.59.146832 +0530,
40,55,62,9,4,67,3,108.31219859997509,,108.29743939999025,108.31219859997509,109.31247949996032,109.31247949996032,109.31247949996032,109.54736299999058,t,0.2336685999762267,None,21,001,2024-11-20_20h35.45.973,delay discounting task,2024.1.5,None,2024-11-20 20h35.59.146832 +0530,
49,60,89,9,5,68,4,109.56241079996107,,109.54804009996587,109.56241079996107,110.5623321000021,110.5623321000021,110.5623321000021,110.81332570000086,l,0.23644080001395196,None,21,001,2024-11-20_20h35.45.973,delay discounting task,2024.1.5,None,2024-11-20 20h35.59.146832 +0530,
11,30,7,9,6,69,0,110.82906279998133,,110.81390259996988,110.82906279998133,111.82907589996466,111.82907589996466,111.82907589996466,112.08017079997808,t,0.23908560001291335,None,21,001,2024-11-20_20h35.45.973,delay discounting task,2024.1.5,None,2024-11-20 20h35.59.146832 +0530,
67,75,119,10,0,70,5,112.09576269995887,,112.08074909995776,112.09576269995887,113.09585949999746,113.09585949999746,113.09585949999746,113.39702979999129,t,0.3001454000477679,None,21,001,2024-11-20_20h35.45.973,delay discounting task,2024.1.5,None,2024-11-20 20h35.59.146832 +0530,
11,30,7,10,1,71,0,113.41225819999818,,113.39760059997207,113.41225819999818,114.41255660000024,114.41255660000024,114.41255660000024,114.68031279998831,l,0.25341810000827536,None,21,001,2024-11-20_20h35.45.973,delay discounting task,2024.1.5,None,2024-11-20 20h35.59.146832 +0530,
27,50,21,10,2,72,2,114.69557729997905,,114.68089229997713,114.69557729997905,115.69584999996005,115.69584999996005,115.69584999996005,116.03024609998101,t,0.31809930002782494,None,21,001,2024-11-20_20h35.45.973,delay discounting task,2024.1.5,None,2024-11-20 20h35.59.146832 +0530,
15,35,13,10,3,73,1,116.0458581999992,,116.03082200000063,116.0458581999992,117.0459736000048,117.0459736000048,117.0459736000048,117.16362409997964,l,0.11159440001938492,None,21,001,2024-11-20_20h35.45.973,delay discounting task,2024.1.5,None,2024-11-20 20h35.59.146832 +0530,
40,55,62,10,4,74,3,117.17929159995401,,117.16420060000382,117.17929159995401,118.17928399995435,118.17928399995435,118.17928399995435,118.36364199995296,t,0.16788660001475364,None,21,001,2024-11-20_20h35.45.973,delay discounting task,2024.1.5,None,2024-11-20 20h35.59.146832 +0530,
49,60,89,10,5,75,4,118.37926229997538,,118.36421480000718,118.37926229997538,119.3793289999594,119.3793289999594,119.3793289999594,119.5135398999555,t,0.12480480002705008,None,21,001,2024-11-20_20h35.45.973,delay discounting task,2024.1.5,None,2024-11-20 20h35.59.146832 +0530,
78,80,162,10,6,76,6,119.52932509995298,,119.51411499996902,119.52932509995298,120.52937999996357,120.52937999996357,120.52937999996357,120.91381769999862,t,0.38023459998657927,None,21,001,2024-11-20_20h35.45.973,delay discounting task,2024.1.5,None,2024-11-20 20h35.59.146832 +0530,
78,80,162,11,0,77,6,120.92944539996097,,120.91439839999657,120.92944539996097,121.92937149998033,121.92937149998033,121.92937149998033,122.1800059999805,l,0.2413370000431314,None,21,001,2024-11-20_20h35.45.973,delay discounting task,2024.1.5,None,2024-11-20 20h35.59.146832 +0530,
27,50,21,11,1,78,2,122.19593329995405,,122.18054549995577,122.19593329995405,123.17950420000125,123.17950420000125,123.19620089995442,123.44729859998915,l,0.2667947000009008,None,21,001,2024-11-20_20h35.45.973,delay discounting task,2024.1.5,None,2024-11-20 20h35.59.146832 +0530,
40,55,62,11,2,79,3,123.46285859995987,,123.44787519995589,123.46285859995987,124.46282499999506,124.46282499999506,124.46282499999506,124.58043729997007,l,0.11649409995879978,None,21,001,2024-11-20_20h35.45.973,delay discounting task,2024.1.5,None,2024-11-20 20h35.59.146832 +0530,
49,60,89,11,3,80,4,124.59611569996923,,124.58100169996032,124.59611569996923,125.59613809996517,125.59613809996517,125.59613809996517,125.8304732000106,t,0.2239380999817513,None,21,001,2024-11-20_20h35.45.973,delay discounting task,2024.1.5,None,2024-11-20 20h35.59.146832 +0530,
67,75,119,11,4,81,5,125.84616879996611,,125.83113489998505,125.84616879996611,126.84623709996231,126.84623709996231,126.84623709996231,126.89731500000926,l,0.045755600032862276,None,21,001,2024-11-20_20h35.45.973,delay discounting task,2024.1.5,None,2024-11-20 20h35.59.146832 +0530,
11,30,7,11,5,82,0,126.91280879999977,,126.89800119999563,126.91280879999977,127.91303049999988,127.91303049999988,127.91303049999988,128.43077069998253,t,0.5073516999837011,None,21,001,2024-11-20_20h35.45.973,delay discounting task,2024.1.5,None,2024-11-20 20h35.59.146832 +0530,
15,35,13,11,6,83,1,128.44619119999697,,128.43135149998125,128.44619119999697,129.44628689996898,129.44628689996898,129.44628689996898,130.04737659997772,l,0.5848989000078291,None,21,001,2024-11-20_20h35.45.973,delay discounting task,2024.1.5,None,2024-11-20 20h35.59.146832 +0530,
11,30,7,12,0,84,0,130.06301499996334,,130.0479504999821,130.06301499996334,131.0630145999603,131.0630145999603,131.0630145999603,131.51411990000634,l,0.44733920000726357,None,21,001,2024-11-20_20h35.45.973,delay discounting task,2024.1.5,None,2024-11-20 20h35.59.146832 +0530,
49,60,89,12,1,85,4,131.5297222000081,,131.51469879999058,131.5297222000081,132.52973379998002,132.52973379998002,132.52973379998002,132.864182099991,t,0.3334524999954738,None,21,001,2024-11-20_20h35.45.973,delay discounting task,2024.1.5,None,2024-11-20 20h35.59.146832 +0530,
15,35,13,12,2,86,1,132.87951559998328,,132.8647939999937,132.87951559998328,133.8797297999845,133.8797297999845,133.8797297999845,134.26411240000743,l,0.38097679999191314,None,21,001,2024-11-20_20h35.45.973,delay discounting task,2024.1.5,None,2024-11-20 20h35.59.146832 +0530,
40,55,62,12,3,87,3,134.27955289999954,,134.26474279997637,134.27955289999954,135.27977199997986,135.27977199997986,135.27977199997986,135.53070919995662,t,0.24826010002288967,None,21,001,2024-11-20_20h35.45.973,delay discounting task,2024.1.5,None,2024-11-20 20h35.59.146832 +0530,
27,50,21,12,4,88,2,135.5462423999561,,135.53135720000137,135.5462423999561,136.54632219998166,136.54632219998166,136.54632219998166,136.8308696000022,l,0.27378099999623373,None,21,001,2024-11-20_20h35.45.973,delay discounting task,2024.1.5,None,2024-11-20 20h35.59.146832 +0530,
67,75,119,12,5,89,5,136.8462683999678,,136.831544799963,136.8462683999678,137.84653370000888,137.84653370000888,137.84653370000888,138.09765179996612,l,0.24578840000322089,None,21,001,2024-11-20_20h35.45.973,delay discounting task,2024.1.5,None,2024-11-20 20h35.59.146832 +0530,
78,80,162,12,6,90,6,138.11316099995747,,138.09832459996687,138.11316099995747,139.1132346999948,139.1132346999948,139.1132346999948,139.63091459998395,t,0.5066493999911472,None,21,001,2024-11-20_20h35.45.973,delay discounting task,2024.1.5,None,2024-11-20 20h35.59.146832 +0530,
49,60,89,13,0,91,4,139.64656889997423,,139.63149149995297,139.64656889997423,140.64662519999547,140.64662519999547,140.64662519999547,140.94777189998422,l,0.2997548000421375,None,21,001,2024-11-20_20h35.45.973,delay discounting task,2024.1.5,None,2024-11-20 20h35.59.146832 +0530,
27,50,21,13,1,92,2,140.9632020999561,,140.94835419999436,140.9632020999561,141.96332909999182,141.96332909999182,141.96332909999182,142.2810921999626,t,0.30345739994663745,None,21,001,2024-11-20_20h35.45.973,delay discounting task,2024.1.5,None,2024-11-20 20h35.59.146832 +0530,
78,80,162,13,2,93,6,142.29660090000834,,142.28171849995852,142.29660090000834,143.29668719996698,143.29668719996698,143.29668719996698,143.54783809999935,t,0.2352493000216782,None,21,001,2024-11-20_20h35.45.973,delay discounting task,2024.1.5,None,2024-11-20 20h35.59.146832 +0530,
15,35,13,13,3,94,1,143.56330609996803,,143.54840109997895,143.56330609996803,144.56339409999782,144.56339409999782,144.56339409999782,144.83107079996262,l,0.26326860004337505,None,21,001,2024-11-20_20h35.45.973,delay discounting task,2024.1.5,None,2024-11-20 20h35.59.146832 +0530,
40,55,62,13,4,95,3,144.84665449999738,,144.8316433999571,144.84665449999738,145.84685069997795,145.84685069997795,145.84685069997795,146.18106009997427,l,0.32618639996508136,None,21,001,2024-11-20_20h35.45.973,delay discounting task,2024.1.5,None,2024-11-20 20h35.59.146832 +0530,
11,30,7,13,5,96,0,146.1967393999803,,146.1817238999647,146.1967393999803,147.19686169998022,147.19686169998022,147.19686169998022,147.53246269997908,l,0.3220115000149235,None,21,001,2024-11-20_20h35.45.973,delay discounting task,2024.1.5,None,2024-11-20 20h35.59.146832 +0530,
67,75,119,13,6,97,5,147.54671399999643,,147.5340644000098,147.54671399999643,148.54689820000203,148.54689820000203,148.54689820000203,148.8478846999933,t,0.2890344000188634,None,21,001,2024-11-20_20h35.45.973,delay discounting task,2024.1.5,None,2024-11-20 20h35.59.146832 +0530,
78,80,162,14,0,98,6,148.86345979996258,,148.848550900002,148.86345979996258,149.86353759997291,149.86353759997291,149.86353759997291,150.13124309998238,t,0.252310200012289,None,21,001,2024-11-20_20h35.45.973,delay discounting task,2024.1.5,None,2024-11-20 20h35.59.146832 +0530,
49,60,89,14,1,99,4,150.1468254000065,,150.13192389998585,150.1468254000065,151.14694559999043,151.14694559999043,151.14694559999043,151.38136199995643,l,0.2214811000158079,None,21,001,2024-11-20_20h35.45.973,delay discounting task,2024.1.5,None,2024-11-20 20h35.59.146832 +0530,
11,30,7,14,2,100,0,151.396671399998,,151.38214149995474,151.396671399998,152.39697899995372,152.39697899995372,152.39697899995372,152.66443329997128,l,0.256835600011982,None,21,001,2024-11-20_20h35.45.973,delay discounting task,2024.1.5,None,2024-11-20 20h35.59.146832 +0530,
67,75,119,14,3,101,5,152.6802217999939,,152.66511030000402,152.6802217999939,153.6800675999839,153.6800675999839,153.6800675999839,153.91462199995294,l,0.2254003999987617,None,21,001,2024-11-20_20h35.45.973,delay discounting task,2024.1.5,None,2024-11-20 20h35.59.146832 +0530,
27,50,21,14,4,102,2,153.93026839999948,,153.91530190000776,153.93026839999948,154.93032200000016,154.93032200000016,154.93032200000016,155.21451009996235,t,0.2758237000089139,None,21,001,2024-11-20_20h35.45.973,delay discounting task,2024.1.5,None,2024-11-20 20h35.59.146832 +0530,
40,55,62,14,5,103,3,155.23004229995422,,155.21518429997377,155.23004229995422,156.23022649995983,156.23022649995983,156.23022649995983,156.4981301999651,t,0.26193189999321476,None,21,001,2024-11-20_20h35.45.973,delay discounting task,2024.1.5,None,2024-11-20 20h35.59.146832 +0530,
15,35,13,14,6,104,1,156.51370889996178,,156.49880120001035,156.51370889996178,157.51378629996907,157.51378629996907,157.51378629996907,157.71471199998632,t,0.19048049999400973,None,21,001,2024-11-20_20h35.45.973,delay discounting task,2024.1.5,None,2024-11-20 20h35.59.146832 +0530,
