reward_today,future_reward,delay,trials.thisRepN,trials.thisTrialN,trials.thisN,trials.thisIndex,thisRow.t,notes,trial.started,fixation.started,text.started,key_resp.started,fixation.stopped,trial.stopped,key_resp.keys,key_resp.rt,key_resp.duration,participant,session,date,expName,psychopyVersion,frameRate,expStart,
15,35,13,0,0,0,1,0.05337579996557906,,0.00998579995939508,0.05337579996557906,1.0055656000040472,1.0055656000040472,1.055618799990043,3.2268074000021443,t,2.216656500007957,None,22,001,2024-11-20_20h45.11.299,delay discounting task,2024.1.5,None,2024-11-20 20h45.22.350114 +0530,
11,30,7,0,1,1,0,3.2390302999992855,,3.2276947000063956,3.2390302999992855,4.238988699973561,4.238988699973561,4.238988699973561,4.773514100001194,l,0.5225510000018403,None,22,001,2024-11-20_20h45.11.299,delay discounting task,2024.1.5,None,2024-11-20 20h45.22.350114 +0530,
49,60,89,0,2,2,4,4.788952099974267,,4.774091899977066,4.788952099974267,5.788958899967838,5.788958899967838,5.788958899967838,6.806866099999752,t,1.0040674000047147,None,22,001,2024-11-20_20h45.11.299,delay discounting task,2024.1.5,None,2024-11-20 20h45.22.350114 +0530,
27,50,21,0,3,3,2,6.822363199957181,,6.807549399964046,6.822363199957181,7.822503799980041,7.822503799980041,7.822503799980041,8.557112500013318,t,0.7270991000114009,None,22,001,2024-11-20_20h45.11.299,delay discounting task,2024.1.5,None,2024-11-20 20h45.22.350114 +0530,
78,80,162,0,4,4,6,8.572497799992561,,8.557885199959856,8.572497799992561,9.57267409999622,9.57267409999622,9.57267409999622,11.057018199993763,t,1.4830860999645665,None,22,001,2024-11-20_20h45.11.299,delay discounting task,2024.1.5,None,2024-11-20 20h45.22.350114 +0530,
67,75,119,0,5,5,5,11.07258609996643,,11.05762469995534,11.07258609996643,12.072695299983025,12.072695299983025,12.072695299983025,12.423642100009602,l,0.33793019998120144,None,22,001,2024-11-20_20h45.11.299,delay discounting task,2024.1.5,None,2024-11-20 20h45.22.350114 +0530,
40,55,62,0,6,6,3,12.439319500001147,,12.424226999981329,12.439319500001147,13.439410599996336,13.439410599996336,13.439410599996336,13.773726999992505,t,0.3212581999832764,None,22,001,2024-11-20_20h45.11.299,delay discounting task,2024.1.5,None,2024-11-20 20h45.22.350114 +0530,
40,55,62,1,0,7,3,13.789117999956943,,13.774422099988442,13.789117999956943,14.789147100003902,14.789147100003902,14.789147100003902,15.140404200006742,l,0.3348674000008032,None,22,001,2024-11-20_20h45.11.299,delay discounting task,2024.1.5,None,2024-11-20 20h45.22.350114 +0530,
67,75,119,1,1,8,5,15.156017299974337,,15.140989599982277,15.156017299974337,16.156100099964533,16.156100099964533,16.156100099964533,16.623799499997403,l,0.46363740001106635,None,22,001,2024-11-20_20h45.11.299,delay discounting task,2024.1.5,None,2024-11-20 20h45.22.350114 +0530,
15,35,13,1,2,9,1,16.6392121000099,,16.62449449999258,16.6392121000099,17.639455600001384,17.639455600001384,17.639455600001384,18.07395849999739,l,0.4321308999788016,None,22,001,2024-11-20_20h45.11.299,delay discounting task,2024.1.5,None,2024-11-20 20h45.22.350114 +0530,
27,50,21,1,3,10,2,18.089435799978673,,18.074553599988576,18.089435799978673,19.08972749998793,19.08972749998793,19.08972749998793,19.39073439995991,t,0.2860334999859333,None,22,001,2024-11-20_20h45.11.299,delay discounting task,2024.1.5,None,2024-11-20 20h45.22.350114 +0530,
49,60,89,1,4,11,4,19.406235400005244,,19.391982599976473,19.406235400005244,20.406216599978507,20.406216599978507,20.406216599978507,20.97412309999345,t,0.5616929999669082,None,22,001,2024-11-20_20h45.11.299,delay discounting task,2024.1.5,None,2024-11-20 20h45.22.350114 +0530,
78,80,162,1,5,12,6,20.989554499974474,,20.97523260000162,20.989554499974474,21.989523299969733,21.989523299969733,21.989523299969733,22.42413369996939,t,0.42723849997855723,None,22,001,2024-11-20_20h45.11.299,delay discounting task,2024.1.5,None,2024-11-20 20h45.22.350114 +0530,
11,30,7,1,6,13,0,22.439546799985692,,22.424723899981473,22.439546799985692,23.439367999962997,23.439367999962997,23.439367999962997,23.857295399997383,l,0.4097453999565914,None,22,001,2024-11-20_20h45.11.299,delay discounting task,2024.1.5,None,2024-11-20 20h45.22.350114 +0530,
27,50,21,2,0,14,2,23.872982500004582,,23.857973299978767,23.872982500004582,24.872994699981064,24.872994699981064,24.872994699981064,24.957615199964494,l,0.07822590001160279,None,22,001,2024-11-20_20h45.11.299,delay discounting task,2024.1.5,None,2024-11-20 20h45.22.350114 +0530,
11,30,7,2,1,15,0,24.973076700000092,,24.958192599995527,24.973076700000092,25.973001900012605,25.973001900012605,25.973001900012605,26.74084889999358,t,0.7566115999943577,None,22,001,2024-11-20_20h45.11.299,delay discounting task,2024.1.5,None,2024-11-20 20h45.22.350114 +0530,
67,75,119,2,2,16,5,26.75630299997283,,26.741428299981635,26.75630299997283,27.756270299956668,27.756270299956668,27.756270299956668,27.974100399995223,t,0.20871750003425404,None,22,001,2024-11-20_20h45.11.299,delay discounting task,2024.1.5,None,2024-11-20 20h45.22.350114 +0530,
78,80,162,2,3,17,6,27.989717499993276,,27.974680499988608,27.989717499993276,28.98982929997146,28.98982929997146,28.98982929997146,36.0411009999807,t,7.047208099975251,None,22,001,2024-11-20_20h45.11.299,delay discounting task,2024.1.5,None,2024-11-20 20h45.22.350114 +0530,
40,55,62,2,4,18,3,36.05669789999956,,36.04168099997332,36.05669789999956,37.05663459998323,37.05663459998323,37.05663459998323,37.42450759996427,l,0.36382440000306815,None,22,001,2024-11-20_20h45.11.299,delay discounting task,2024.1.5,None,2024-11-20 20h45.22.350114 +0530,
15,35,13,2,5,19,1,37.440091600001324,,37.42508919996908,37.440091600001324,38.440082199987955,38.440082199987955,38.440082199987955,43.22453800000949,t,4.776354999979958,None,22,001,2024-11-20_20h45.11.299,delay discounting task,2024.1.5,None,2024-11-20 20h45.22.350114 +0530,
49,60,89,2,6,20,4,43.24021509999875,,43.22511449997546,43.24021509999875,44.24018949997844,44.24018949997844,44.24018949997844,44.50782519998029,l,0.253267300024163,None,22,001,2024-11-20_20h45.11.299,delay discounting task,2024.1.5,None,2024-11-20 20h45.22.350114 +0530,
27,50,21,3,0,21,2,44.523540499969386,,44.50840489997063,44.523540499969386,45.52358139998978,45.52358139998978,45.52358139998978,45.75794539996423,l,0.22640530002536252,None,22,001,2024-11-20_20h45.11.299,delay discounting task,2024.1.5,None,2024-11-20 20h45.22.350114 +0530,
40,55,62,3,1,22,3,45.773666199995205,,45.758526299963705,45.773666199995205,46.773597199993674,46.773597199993674,46.773597199993674,47.024695299973246,l,0.24987030000193045,None,22,001,2024-11-20_20h45.11.299,delay discounting task,2024.1.5,None,2024-11-20 20h45.22.350114 +0530,
78,80,162,3,2,23,6,47.040296599967405,,47.025275599968154,47.040296599967405,48.04037309996784,48.04037309996784,48.04037309996784,51.19152029999532,l,3.136158599983901,None,22,001,2024-11-20_20h45.11.299,delay discounting task,2024.1.5,None,2024-11-20 20h45.22.350114 +0530,
67,75,119,3,3,24,5,51.207068699994124,,51.192096999962814,51.207068699994124,52.20707790000597,52.20707790000597,52.20707790000597,52.77470169996377,t,0.5581286000087857,None,22,001,2024-11-20_20h45.11.299,delay discounting task,2024.1.5,None,2024-11-20 20h45.22.350114 +0530,
49,60,89,3,4,25,4,52.790475099987816,,52.77527689997805,52.790475099987816,53.79048540000804,53.79048540000804,53.79048540000804,54.341544799972326,l,0.5372829999541864,None,22,001,2024-11-20_20h45.11.299,delay discounting task,2024.1.5,None,2024-11-20 20h45.22.350114 +0530,
11,30,7,3,5,26,0,54.3572193,,54.34211799997138,54.3572193,55.357219199999236,55.357219199999236,55.357219199999236,56.141848400002345,t,0.7811852000304498,None,22,001,2024-11-20_20h45.11.299,delay discounting task,2024.1.5,None,2024-11-20 20h45.22.350114 +0530,
15,35,13,3,6,27,1,56.157157099980395,,56.142430800013244,56.157157099980395,57.15731829998549,57.15731829998549,57.15731829998549,57.94166710000718,l,0.7772707000258379,None,22,001,2024-11-20_20h45.11.299,delay discounting task,2024.1.5,None,2024-11-20 20h45.22.350114 +0530,
15,35,13,4,0,28,1,57.957322900008876,,57.94224929995835,57.957322900008876,58.95711700001266,58.95711700001266,58.95711700001266,59.22489139996469,t,0.2543641000520438,None,22,001,2024-11-20_20h45.11.299,delay discounting task,2024.1.5,None,2024-11-20 20h45.22.350114 +0530,
49,60,89,4,1,29,4,59.24061509995954,,59.22547199996188,59.24061509995954,60.240639799972996,60.240639799972996,60.240639799972996,60.708463899965864,t,0.4550514000002295,None,22,001,2024-11-20_20h45.11.299,delay discounting task,2024.1.5,None,2024-11-20 20h45.22.350114 +0530,
67,75,119,4,2,30,5,60.72379189997446,,60.70904829999199,60.72379189997446,61.72409879998304,61.72409879998304,61.72409879998304,62.09172570001101,l,0.36292559996945783,None,22,001,2024-11-20_20h45.11.299,delay discounting task,2024.1.5,None,2024-11-20 20h45.22.350114 +0530,
27,50,21,4,3,31,2,62.10738860000856,,62.09230069996556,62.10738860000856,63.10738030000357,63.10738030000357,63.10738030000357,63.42526829999406,l,0.3099616999970749,None,22,001,2024-11-20_20h45.11.299,delay discounting task,2024.1.5,None,2024-11-20 20h45.22.350114 +0530,
40,55,62,4,4,32,3,63.4405464999727,,63.42601779999677,63.4405464999727,64.44083929999033,64.44083929999033,64.44083929999033,64.69196919997921,l,0.24716810003155842,None,22,001,2024-11-20_20h45.11.299,delay discounting task,2024.1.5,None,2024-11-20 20h45.22.350114 +0530,
78,80,162,4,5,33,6,64.70724089996656,,64.69258400000399,64.70724089996656,65.70758909999859,65.70758909999859,65.70758909999859,65.90867340000113,t,0.19509349996224046,None,22,001,2024-11-20_20h45.11.299,delay discounting task,2024.1.5,None,2024-11-20 20h45.22.350114 +0530,
11,30,7,4,6,34,0,65.92413900000975,,65.90929239999969,65.92413900000975,66.92427479999606,66.92427479999606,66.92427479999606,67.19184809998842,t,0.2576611999538727,None,22,001,2024-11-20_20h45.11.299,delay discounting task,2024.1.5,None,2024-11-20 20h45.22.350114 +0530,
27,50,21,5,0,35,2,67.20743969996693,,67.19243150000693,67.20743969996693,68.20751019997988,68.20751019997988,68.20751019997988,68.34200929995859,t,None,None,22,001,2024-11-20_20h45.11.299,delay discounting task,2024.1.5,None,2024-11-20 20h45.22.350114 +0530,
11,30,7,5,1,36,0,68.35743559995899,,68.3427939999965,68.35743559995899,69.35755660000723,69.35755660000723,69.35755660000723,70.42515169997932,l,1.0532779000350274,None,22,001,2024-11-20_20h45.11.299,delay discounting task,2024.1.5,None,2024-11-20 20h45.22.350114 +0530,
15,35,13,5,2,37,1,70.4409169999999,,70.4257144999574,70.4409169999999,71.4409976999741,71.4409976999741,71.4409976999741,71.75851989997318,t,0.3016867999685928,None,22,001,2024-11-20_20h45.11.299,delay discounting task,2024.1.5,None,2024-11-20 20h45.22.350114 +0530,
49,60,89,5,3,38,4,71.77428309997777,,71.75908369995886,71.77428309997777,72.77414890000364,72.77414890000364,72.77414890000364,74.70896329998504,t,1.9247582000098191,None,22,001,2024-11-20_20h45.11.299,delay discounting task,2024.1.5,None,2024-11-20 20h45.22.350114 +0530,
67,75,119,5,4,39,5,74.72445899999002,,74.70951909996802,74.72445899999002,75.72435179998865,75.72435179998865,75.72435179998865,76.24212469998747,t,0.5127185999881476,None,22,001,2024-11-20_20h45.11.299,delay discounting task,2024.1.5,None,2024-11-20 20h45.22.350114 +0530,
78,80,162,5,5,40,6,76.25783229997614,,76.24267800000962,76.25783229997614,77.25781410001218,77.25781410001218,77.25781410001218,78.67556020000484,t,1.4109096000320278,None,22,001,2024-11-20_20h45.11.299,delay discounting task,2024.1.5,None,2024-11-20 20h45.22.350114 +0530,
40,55,62,5,6,41,3,78.69111919996794,,78.67612439999357,78.69111919996794,79.69125390000409,79.69125390000409,79.69125390000409,81.1423846000107,l,1.4410934000043198,None,22,001,2024-11-20_20h45.11.299,delay discounting task,2024.1.5,None,2024-11-20 20h45.22.350114 +0530,
49,60,89,6,0,42,4,81.15781850001076,,81.14294509997126,81.15781850001076,82.15798109996831,82.15798109996831,82.15798109996831,82.30898450000677,t,0.1348503000335768,None,22,001,2024-11-20_20h45.11.299,delay discounting task,2024.1.5,None,2024-11-20 20h45.22.350114 +0530,
15,35,13,6,1,43,1,82.32444130000658,,82.30954129999736,82.32444130000658,83.32457689999137,83.32457689999137,83.32457689999137,84.15903779998189,t,0.8185117999673821,None,22,001,2024-11-20_20h45.11.299,delay discounting task,2024.1.5,None,2024-11-20 20h45.22.350114 +0530,
11,30,7,6,2,44,0,84.17464059998747,,84.15959459997248,84.17464059998747,85.17468539997935,85.17468539997935,85.17468539997935,85.37570519995643,l,0.1869023999897763,None,22,001,2024-11-20_20h45.11.299,delay discounting task,2024.1.5,None,2024-11-20 20h45.22.350114 +0530,
67,75,119,6,3,45,5,85.39134949998697,,85.37626240000827,85.39134949998697,86.39145950000966,86.39145950000966,86.39145950000966,87.12604469998041,t,0.7311073000309989,None,22,001,2024-11-20_20h45.11.299,delay discounting task,2024.1.5,None,2024-11-20 20h45.22.350114 +0530,
78,80,162,6,4,46,6,87.14120909996564,,87.12659599998733,87.14120909996564,88.141472599993,88.141472599993,88.141472599993,88.69248709996464,l,0.5358011000207625,None,22,001,2024-11-20_20h45.11.299,delay discounting task,2024.1.5,None,2024-11-20 20h45.22.350114 +0530,
40,55,62,6,5,47,3,88.70811239996692,,88.69303530000616,88.70811239996692,89.7080552999978,89.7080552999978,89.7080552999978,90.60928609996336,t,0.8887293000007048,None,22,001,2024-11-20_20h45.11.299,delay discounting task,2024.1.5,None,2024-11-20 20h45.22.350114 +0530,
27,50,21,6,6,48,2,90.62492129998282,,90.60994609998306,90.62492129998282,91.62482619995717,91.62482619995717,91.62482619995717,91.77601359999971,l,0.13691800000378862,None,22,001,2024-11-20_20h45.11.299,delay discounting task,2024.1.5,None,2024-11-20 20h45.22.350114 +0530,
49,60,89,7,0,49,4,91.79154149995884,,91.77656009997008,91.79154149995884,92.79162279999582,92.79162279999582,92.79162279999582,93.776201199973,t,0.9776858999975957,None,22,001,2024-11-20_20h45.11.299,delay discounting task,2024.1.5,None,2024-11-20 20h45.22.350114 +0530,
27,50,21,7,1,50,2,93.79149589996086,,93.77676119998796,93.79149589996086,94.79163599997992,94.79163599997992,94.79163599997992,95.7094858000055,t,0.9125481999944896,None,22,001,2024-11-20_20h45.11.299,delay discounting task,2024.1.5,None,2024-11-20 20h45.22.350114 +0530,
15,35,13,7,2,51,1,95.72496570000658,,95.71004959999118,95.72496570000658,96.72503959998721,96.72503959998721,96.72503959998721,97.14275090000592,l,0.41237969999201596,None,22,001,2024-11-20_20h45.11.299,delay discounting task,2024.1.5,None,2024-11-20 20h45.22.350114 +0530,
11,30,7,7,3,52,0,97.15832529996987,,97.14331819996005,97.15832529996987,98.15838489995804,98.15838489995804,98.15838489995804,99.226251999964,t,1.0560527999768965,None,22,001,2024-11-20_20h45.11.299,delay discounting task,2024.1.5,None,2024-11-20 20h45.22.350114 +0530,
67,75,119,7,4,53,5,99.24172599997837,,99.22681469999952,99.24172599997837,100.2418139000074,100.2418139000074,100.2418139000074,102.62633429997368,t,2.3803149000159465,None,22,001,2024-11-20_20h45.11.299,delay discounting task,2024.1.5,None,2024-11-20 20h45.22.350114 +0530,
78,80,162,7,5,54,6,102.64165339997271,,102.62689159996808,102.64165339997271,103.641941400012,103.641941400012,103.641941400012,104.09305189998122,l,0.4466386000276543,None,22,001,2024-11-20_20h45.11.299,delay discounting task,2024.1.5,None,2024-11-20 20h45.22.350114 +0530,
40,55,62,7,6,55,3,104.10850249999203,,104.09371469996404,104.10850249999203,105.10872309998376,105.10872309998376,105.10872309998376,105.50963439996121,t,0.38783640001202,None,22,001,2024-11-20_20h45.11.299,delay discounting task,2024.1.5,None,2024-11-20 20h45.22.350114 +0530,
27,50,21,8,0,56,2,105.52532640000572,,105.51019519998226,105.52532640000572,106.52550709998468,106.52550709998468,106.52550709998468,106.95961829996668,l,0.42868100001942366,None,22,001,2024-11-20_20h45.11.299,delay discounting task,2024.1.5,None,2024-11-20 20h45.22.350114 +0530,
15,35,13,8,1,57,1,106.9753756999853,,106.96021569997538,106.9753756999853,107.97537749999901,107.97537749999901,107.97537749999901,108.37653169996338,t,0.3987822999479249,None,22,001,2024-11-20_20h45.11.299,delay discounting task,2024.1.5,None,2024-11-20 20h45.22.350114 +0530,
11,30,7,8,2,58,0,108.39199129998451,,108.37709590001032,108.39199129998451,109.39213019999443,109.39213019999443,109.39213019999443,110.5432060000021,t,1.1349936000187881,None,22,001,2024-11-20_20h45.11.299,delay discounting task,2024.1.5,None,2024-11-20 20h45.22.350114 +0530,
49,60,89,8,3,59,4,110.55869159998838,,110.54378810001072,110.55869159998838,111.55881799996132,111.55881799996132,111.55881799996132,113.07658289995743,t,1.5065818000002764,None,22,001,2024-11-20_20h45.11.299,delay discounting task,2024.1.5,None,2024-11-20 20h45.22.350114 +0530,
40,55,62,8,4,60,3,113.09216120000929,,113.0771381999948,113.09216120000929,114.09231229999568,114.09231229999568,114.09231229999568,114.57643469999311,t,0.48077920003561303,None,22,001,2024-11-20_20h45.11.299,delay discounting task,2024.1.5,None,2024-11-20 20h45.22.350114 +0530,
78,80,162,8,5,61,6,114.59213740000268,,114.57707279996248,114.59213740000268,115.59205400000792,115.59205400000792,115.59205400000792,115.82660089997808,l,0.22708780004177243,None,22,001,2024-11-20_20h45.11.299,delay discounting task,2024.1.5,None,2024-11-20 20h45.22.350114 +0530,
67,75,119,8,6,62,5,115.84235009999247,,115.82750229997328,115.84235009999247,116.84226209996268,116.84226209996268,116.84226209996268,119.36047449999023,t,2.513337899988983,None,22,001,2024-11-20_20h45.11.299,delay discounting task,2024.1.5,None,2024-11-20 20h45.22.350114 +0530,
27,50,21,9,0,63,2,119.37570079998113,,119.36147030000575,119.37570079998113,120.375782899966,120.375782899966,120.375782899966,121.17686680000043,l,0.7979835000005551,None,22,001,2024-11-20_20h45.11.299,delay discounting task,2024.1.5,None,2024-11-20 20h45.22.350114 +0530,
11,30,7,9,1,64,0,121.19244819995947,,121.17742329998873,121.19244819995947,122.19235719996504,122.19235719996504,122.19235719996504,122.59360439999728,t,0.3933144999900833,None,22,001,2024-11-20_20h45.11.299,delay discounting task,2024.1.5,None,2024-11-20 20h45.22.350114 +0530,
40,55,62,9,2,65,3,122.60891069995705,,122.59416139998939,122.60891069995705,123.60913200001232,123.60913200001232,123.60913200001232,124.29366699996172,t,0.6775752999819815,None,22,001,2024-11-20_20h45.11.299,delay discounting task,2024.1.5,None,2024-11-20 20h45.22.350114 +0530,
15,35,13,9,3,66,1,124.30894079996506,,124.29425919998903,124.30894079996506,125.30931099998998,125.30931099998998,125.30931099998998,125.52697770000668,l,0.2026241000276059,None,22,001,2024-11-20_20h45.11.299,delay discounting task,2024.1.5,None,2024-11-20 20h45.22.350114 +0530,
78,80,162,9,4,67,6,125.54255369998282,,125.52762899996014,125.54255369998282,126.54242539999541,126.54242539999541,126.54242539999541,126.79374250001274,t,0.2430051999981515,None,22,001,2024-11-20_20h45.11.299,delay discounting task,2024.1.5,None,2024-11-20 20h45.22.350114 +0530,
49,60,89,9,5,68,4,126.80918179999571,,126.79440789995715,126.80918179999571,127.80927879997762,127.80927879997762,127.80927879997762,132.6606136999908,t,4.837358299992047,None,22,001,2024-11-20_20h45.11.299,delay discounting task,2024.1.5,None,2024-11-20 20h45.22.350114 +0530,
67,75,119,9,6,69,5,132.67594639997697,,132.66135239996947,132.67594639997697,133.6761478999979,133.6761478999979,133.6761478999979,133.74384349997854,l,0.06263900001067668,None,22,001,2024-11-20_20h45.11.299,delay discounting task,2024.1.5,None,2024-11-20 20h45.22.350114 +0530,
11,30,7,10,0,70,0,133.75946639996255,,133.74458369996864,133.75946639996255,134.75947990000714,134.75947990000714,134.75947990000714,136.12712640000973,t,1.358598900027573,None,22,001,2024-11-20_20h45.11.299,delay discounting task,2024.1.5,None,2024-11-20 20h45.22.350114 +0530,
15,35,13,10,1,71,1,136.1428644999978,,136.12778019998223,136.1428644999978,137.14289540000027,137.14289540000027,137.14289540000027,137.5771928000031,l,0.4315394999575801,None,22,001,2024-11-20_20h45.11.299,delay discounting task,2024.1.5,None,2024-11-20 20h45.22.350114 +0530,
40,55,62,10,2,72,3,137.59265129995765,,137.57785269996384,137.59265129995765,138.59297529998003,138.59297529998003,138.59297529998003,138.97730979998596,t,0.37295589997665957,None,22,001,2024-11-20_20h45.11.299,delay discounting task,2024.1.5,None,2024-11-20 20h45.22.350114 +0530,
78,80,162,10,3,73,6,138.9928937999648,,138.97787509998307,138.9928937999648,139.9928144000005,139.9928144000005,139.9928144000005,140.06059399998048,l,0.059340800042264163,None,22,001,2024-11-20_20h45.11.299,delay discounting task,2024.1.5,None,2024-11-20 20h45.22.350114 +0530,
49,60,89,10,4,74,4,140.07619759999216,,140.0612553000101,140.07619759999216,141.0764323999756,141.0764323999756,141.0764323999756,141.41103560000192,t,0.31839540001237765,None,22,001,2024-11-20_20h45.11.299,delay discounting task,2024.1.5,None,2024-11-20 20h45.22.350114 +0530,
27,50,21,10,5,75,2,141.42624060000526,,141.4120455000084,141.42624060000526,142.4262255000067,142.4262255000067,142.4262255000067,142.51087369996822,l,0.0753456000238657,None,22,001,2024-11-20_20h45.11.299,delay discounting task,2024.1.5,None,2024-11-20 20h45.22.350114 +0530,
67,75,119,10,6,76,5,142.52644270000746,,142.51143670000602,142.52644270000746,143.52640849997988,143.52640849997988,143.52640849997988,143.6107772999676,l,0.06835000001592562,None,22,001,2024-11-20_20h45.11.299,delay discounting task,2024.1.5,None,2024-11-20 20h45.22.350114 +0530,
67,75,119,11,0,77,5,143.62623259995598,,143.61138079996454,143.62623259995598,144.62646920001134,144.62646920001134,144.62646920001134,144.727464399999,t,0.09896530001424253,None,22,001,2024-11-20_20h45.11.299,delay discounting task,2024.1.5,None,2024-11-20 20h45.22.350114 +0530,
11,30,7,11,1,78,0,144.7430211000028,,144.72811500000535,144.7430211000028,145.74306060001254,145.74306060001254,145.74306060001254,146.37733519996982,t,0.6201223999960348,None,22,001,2024-11-20_20h45.11.299,delay discounting task,2024.1.5,None,2024-11-20 20h45.22.350114 +0530,
27,50,21,11,2,79,2,146.39307369996095,,146.37799919996178,146.39307369996095,147.39301369996974,147.39301369996974,147.39301369996974,148.87751369999023,l,1.4733217000029981,None,22,001,2024-11-20_20h45.11.299,delay discounting task,2024.1.5,None,2024-11-20 20h45.22.350114 +0530,
78,80,162,11,3,80,6,148.8931356999674,,148.8784874000121,148.8931356999674,149.8931018000003,149.8931018000003,149.8931018000003,150.16122619999805,t,0.253907700011041,None,22,001,2024-11-20_20h45.11.299,delay discounting task,2024.1.5,None,2024-11-20 20h45.22.350114 +0530,
15,35,13,11,4,81,1,150.1764461999992,,150.1618904999923,150.1764461999992,151.17666519997874,151.17666519997874,151.17666519997874,151.47763719997602,l,0.2870545999612659,None,22,001,2024-11-20_20h45.11.299,delay discounting task,2024.1.5,None,2024-11-20 20h45.22.350114 +0530,
40,55,62,11,5,82,3,151.4933294999646,,151.47819419996813,151.4933294999646,152.49328860000242,152.49328860000242,152.49328860000242,152.61062789999414,t,0.10592879995238036,None,22,001,2024-11-20_20h45.11.299,delay discounting task,2024.1.5,None,2024-11-20 20h45.22.350114 +0530,
49,60,89,11,6,83,4,152.6264618000132,,152.6112342000124,152.6264618000132,153.61002009996446,153.61002009996446,153.62668149999809,154.12759129999904,t,0.5162272000452504,None,22,001,2024-11-20_20h45.11.299,delay discounting task,2024.1.5,None,2024-11-20 20h45.22.350114 +0530,
27,50,21,12,0,84,2,154.14336280000862,,154.1282011999865,154.14336280000862,155.1432999999961,155.1432999999961,155.1432999999961,155.51110459998017,l,0.3517684999969788,None,22,001,2024-11-20_20h45.11.299,delay discounting task,2024.1.5,None,2024-11-20 20h45.22.350114 +0530,
15,35,13,12,1,85,1,155.52668169996468,,155.51172539999243,155.52668169996468,156.52674810000462,156.52674810000462,156.52674810000462,156.74451819999376,t,0.20386329997563735,None,22,001,2024-11-20_20h45.11.299,delay discounting task,2024.1.5,None,2024-11-20 20h45.22.350114 +0530,
67,75,119,12,2,86,5,156.75989330001175,,156.7451752999914,156.75989330001175,157.759997199988,157.759997199988,157.759997199988,162.14444860001095,l,4.372184600040782,None,22,001,2024-11-20_20h45.11.299,delay discounting task,2024.1.5,None,2024-11-20 20h45.22.350114 +0530,
40,55,62,12,3,87,3,162.1602583999629,,162.14501390000805,162.1602583999629,163.16037269996013,163.16037269996013,163.16037269996013,163.24474980001105,t,0.07702530000824481,None,22,001,2024-11-20_20h45.11.299,delay discounting task,2024.1.5,None,2024-11-20 20h45.22.350114 +0530,
78,80,162,12,4,88,6,163.26022229995579,,163.2453185999766,163.26022229995579,164.26027639996028,164.26027639996028,164.26027639996028,165.11145530000795,t,0.8432528999983333,None,22,001,2024-11-20_20h45.11.299,delay discounting task,2024.1.5,None,2024-11-20 20h45.22.350114 +0530,
11,30,7,12,5,89,0,165.12679499998922,,165.1120548999752,165.12679499998922,166.12710360001074,166.12710360001074,166.12710360001074,168.22812759998487,t,2.093191799998749,None,22,001,2024-11-20_20h45.11.299,delay discounting task,2024.1.5,None,2024-11-20 20h45.22.350114 +0530,
49,60,89,12,6,90,4,168.24369049997767,,168.2286925999797,168.24369049997767,169.24387399997795,169.24387399997795,169.24387399997795,169.47792689997004,l,0.21824580000247806,None,22,001,2024-11-20_20h45.11.299,delay discounting task,2024.1.5,None,2024-11-20 20h45.22.350114 +0530,
49,60,89,13,0,91,4,169.49365759996,,169.4785184999928,169.49365759996,170.49378239997895,170.49378239997895,170.49378239997895,171.34484759997576,t,0.8450354999513365,None,22,001,2024-11-20_20h45.11.299,delay discounting task,2024.1.5,None,2024-11-20 20h45.22.350114 +0530,
27,50,21,13,1,92,2,171.36048689996824,,171.3454020000063,171.36048689996824,172.36055719997967,172.36055719997967,172.36055719997967,173.84504729998298,t,1.4681762999971397,None,22,001,2024-11-20_20h45.11.299,delay discounting task,2024.1.5,None,2024-11-20 20h45.22.350114 +0530,
67,75,119,13,2,93,5,173.86049779999303,,173.84561189997476,173.86049779999303,174.86067029996775,174.86067029996775,174.86067029996775,176.26165209995816,l,1.3888728999882005,None,22,001,2024-11-20_20h45.11.299,delay discounting task,2024.1.5,None,2024-11-20 20h45.22.350114 +0530,
78,80,162,13,3,94,6,176.27730859996518,,176.26221519999672,176.27730859996518,177.27733919996535,177.27733919996535,177.27733919996535,177.57836240000324,t,0.28476760000921786,None,22,001,2024-11-20_20h45.11.299,delay discounting task,2024.1.5,None,2024-11-20 20h45.22.350114 +0530,
11,30,7,13,4,95,0,177.59403059998294,,177.57892259996152,177.59403059998294,178.5940258000046,178.5940258000046,178.5940258000046,179.01175569999032,t,0.41132070001913235,None,22,001,2024-11-20_20h45.11.299,delay discounting task,2024.1.5,None,2024-11-20 20h45.22.350114 +0530,
15,35,13,13,5,96,1,179.0273227999569,,179.01232559996424,179.0273227999569,180.027336500003,180.027336500003,180.027336500003,180.91183989995625,l,0.869682600023225,None,22,001,2024-11-20_20h45.11.299,delay discounting task,2024.1.5,None,2024-11-20 20h45.22.350114 +0530,
40,55,62,13,6,97,3,180.9276636999566,,180.91244280000683,180.9276636999566,181.9274986999808,181.9274986999808,181.9274986999808,185.3119077999727,t,3.3704889000509866,None,22,001,2024-11-20_20h45.11.299,delay discounting task,2024.1.5,None,2024-11-20 20h45.22.350114 +0530,
67,75,119,14,0,98,5,185.32744449999882,,185.31257129996084,185.32744449999882,186.3276095999754,186.3276095999754,186.3276095999754,187.31216969998786,l,0.9801567000104114,None,22,001,2024-11-20_20h45.11.299,delay discounting task,2024.1.5,None,2024-11-20 20h45.22.350114 +0530,
49,60,89,14,1,99,4,187.32747449999442,,187.3127308000112,187.32747449999442,188.32765609998023,188.32765609998023,188.32765609998023,189.5621947000036,t,1.219051199965179,None,22,001,2024-11-20_20h45.11.299,delay discounting task,2024.1.5,None,2024-11-20 20h45.22.350114 +0530,
11,30,7,14,2,100,0,189.57760789996246,,189.56276199995773,189.57760789996246,190.57788789999904,190.57788789999904,190.57788789999904,193.09579719998874,t,2.516796899959445,None,22,001,2024-11-20_20h45.11.299,delay discounting task,2024.1.5,None,2024-11-20 20h45.22.350114 +0530,
78,80,162,14,3,101,6,193.1110289999633,,193.09636089997366,193.1110289999633,194.11118509998778,194.11118509998778,194.11118509998778,194.87884189997567,l,0.7545128000201657,None,22,001,2024-11-20_20h45.11.299,delay discounting task,2024.1.5,None,2024-11-20 20h45.22.350114 +0530,
15,35,13,14,4,102,1,194.89448999997694,,194.87940539995907,194.89448999997694,195.89467710000463,195.89467710000463,195.89467710000463,196.82890520000365,t,0.9303803000366315,None,22,001,2024-11-20_20h45.11.299,delay discounting task,2024.1.5,None,2024-11-20 20h45.22.350114 +0530,
40,55,62,14,5,103,3,196.84457549999934,,196.82944750000024,196.84457549999934,197.84456269996008,197.84456269996008,197.84456269996008,198.49564879998798,l,0.6390439999522641,None,22,001,2024-11-20_20h45.11.299,delay discounting task,2024.1.5,None,2024-11-20 20h45.22.350114 +0530,
27,50,21,14,6,104,2,198.51136709999992,,198.4961997999926,198.51136709999992,199.5113205999951,199.5113205999951,199.5113205999951,201.06231249996927,l,1.5485187000012957,None,22,001,2024-11-20_20h45.11.299,delay discounting task,2024.1.5,None,2024-11-20 20h45.22.350114 +0530,
