reward_today,future_reward,delay,trials.thisRepN,trials.thisTrialN,trials.thisN,trials.thisIndex,thisRow.t,notes,trial.started,fixation.started,text.started,key_resp.started,fixation.stopped,trial.stopped,key_resp.keys,key_resp.rt,key_resp.duration,participant,session,date,expName,psychopyVersion,frameRate,expStart,
49,60,89,0,0,0,4,0.052605099976062775,,0.009995199972763658,0.052605099976062775,1.0019455999718048,1.0019455999718048,1.0518516000011005,2.006550199992489,l,0.9865946000209078,None,23,001,2024-11-20_20h51.33.321,delay discounting task,2024.1.5,None,2024-11-20 20h51.43.163944 +0530,
67,75,119,0,1,1,5,2.018785799969919,,2.0075307000079192,2.018785799969919,3.0188006999669597,3.0188006999669597,3.0188006999669597,3.336575399967842,t,0.30984479998005554,None,23,001,2024-11-20_20h51.33.321,delay discounting task,2024.1.5,None,2024-11-20 20h51.43.163944 +0530,
40,55,62,0,2,2,3,3.3518680999986827,,3.337149499973748,3.3518680999986827,4.352141699986532,4.352141699986532,4.352141699986532,4.7697969999862835,l,0.41409630002453923,None,23,001,2024-11-20_20h51.33.321,delay discounting task,2024.1.5,None,2024-11-20 20h51.43.163944 +0530,
78,80,162,0,3,3,6,4.78545959998155,,4.770502700004727,4.78545959998155,5.785535999981221,5.785535999981221,5.785535999981221,6.069974799989723,t,0.27250600000843406,None,23,001,2024-11-20_20h51.33.321,delay discounting task,2024.1.5,None,2024-11-20 20h51.43.163944 +0530,
11,30,7,0,4,4,0,6.085308799985796,,6.0705504000070505,6.085308799985796,7.085359300021082,7.085359300021082,7.085359300021082,7.603187799977604,l,0.505079000024125,None,23,001,2024-11-20_20h51.33.321,delay discounting task,2024.1.5,None,2024-11-20 20h51.43.163944 +0530,
15,35,13,0,5,5,1,7.618934499972966,,7.60376789997099,7.618934499972966,8.618932400015183,8.618932400015183,8.618932400015183,11.203222499985714,t,2.5753111999947578,None,23,001,2024-11-20_20h51.33.321,delay discounting task,2024.1.5,None,2024-11-20 20h51.43.163944 +0530,
27,50,21,0,6,6,2,11.218902199994773,,11.203807900019456,11.218902199994773,12.219111700018402,12.219111700018402,12.219111700018402,12.437023699982092,t,0.2166842999868095,None,23,001,2024-11-20_20h51.33.321,delay discounting task,2024.1.5,None,2024-11-20 20h51.43.163944 +0530,
49,60,89,1,0,7,4,12.452126700023655,,12.437710599973798,12.452126700023655,13.452480099978857,13.452480099978857,13.452480099978857,13.886745899973903,l,0.4182777999667451,None,23,001,2024-11-20_20h51.33.321,delay discounting task,2024.1.5,None,2024-11-20 20h51.43.163944 +0530,
15,35,13,1,1,8,1,13.90237279998837,,13.887327599979471,13.90237279998837,14.902250199986156,14.902250199986156,14.902250199986156,15.436787399987224,l,0.5246806000359356,None,23,001,2024-11-20_20h51.33.321,delay discounting task,2024.1.5,None,2024-11-20 20h51.43.163944 +0530,
67,75,119,1,2,9,5,15.452224700013176,,15.437366199970711,15.452224700013176,16.45250339998165,16.45250339998165,16.45250339998165,16.786854700010736,l,0.32246049999957904,None,23,001,2024-11-20_20h51.33.321,delay discounting task,2024.1.5,None,2024-11-20 20h51.43.163944 +0530,
11,30,7,1,3,10,0,16.80237799999304,,16.78743139997823,16.80237799999304,17.8023555999971,17.8023555999971,17.8023555999971,18.25349809997715,l,0.4433472999953665,None,23,001,2024-11-20_20h51.33.321,delay discounting task,2024.1.5,None,2024-11-20 20h51.43.163944 +0530,
40,55,62,1,4,11,3,18.26898579997942,,18.254098700010218,18.26898579997942,19.269211300008465,19.269211300008465,19.269211300008465,19.35405650001485,t,0.08381310000550002,None,23,001,2024-11-20_20h51.33.321,delay discounting task,2024.1.5,None,2024-11-20 20h51.43.163944 +0530,
27,50,21,1,5,12,2,19.36919489997672,,19.354635399999097,19.36919489997672,20.36962539999513,20.36962539999513,20.36962539999513,20.837082999991253,l,0.4575031000422314,None,23,001,2024-11-20_20h51.33.321,delay discounting task,2024.1.5,None,2024-11-20 20h51.43.163944 +0530,
78,80,162,1,6,13,6,20.85233199998038,,20.837664199993014,20.85233199998038,21.852645999984816,21.852645999984816,21.852645999984816,23.22029799997108,t,1.3533348999917507,None,23,001,2024-11-20_20h51.33.321,delay discounting task,2024.1.5,None,2024-11-20 20h51.43.163944 +0530,
11,30,7,2,0,14,0,23.235988900007214,,23.220965299988165,23.235988900007214,24.235808999976143,24.235808999976143,24.235808999976143,25.520415899984073,l,1.2735333000309765,None,23,001,2024-11-20_20h51.33.321,delay discounting task,2024.1.5,None,2024-11-20 20h51.43.163944 +0530,
78,80,162,2,1,15,6,25.53606850001961,,25.520993200014345,25.53606850001961,26.536124899983406,26.536124899983406,26.536124899983406,27.387221299984958,t,0.8460145999561064,None,23,001,2024-11-20_20h51.33.321,delay discounting task,2024.1.5,None,2024-11-20 20h51.43.163944 +0530,
15,35,13,2,2,16,1,27.402576100022998,,27.387791400018614,27.402576100022998,28.402773400011938,28.402773400011938,28.402773400011938,28.770564300008118,t,0.3517062999890186,None,23,001,2024-11-20_20h51.33.321,delay discounting task,2024.1.5,None,2024-11-20 20h51.43.163944 +0530,
49,60,89,2,3,17,4,28.78592649998609,,28.771241899987217,28.78592649998609,29.786176799971145,29.786176799971145,29.786176799971145,31.254111999995075,t,1.4609468000126071,None,23,001,2024-11-20_20h51.33.321,delay discounting task,2024.1.5,None,2024-11-20 20h51.43.163944 +0530,
27,50,21,2,4,18,2,31.269611299969256,,31.25479009997798,31.269611299969256,32.269656600023154,32.269656600023154,32.269656600023154,32.570709399995394,t,0.2930629999609664,None,23,001,2024-11-20_20h51.33.321,delay discounting task,2024.1.5,None,2024-11-20 20h51.43.163944 +0530,
40,55,62,2,5,19,3,32.58624969999073,,32.571283800003584,32.58624969999073,33.58635699999286,33.58635699999286,33.58635699999286,34.00387790001696,t,0.4147699999739416,None,23,001,2024-11-20_20h51.33.321,delay discounting task,2024.1.5,None,2024-11-20 20h51.43.163944 +0530,
67,75,119,2,6,20,5,34.01943709998159,,34.004615999991074,34.01943709998159,35.01967319997493,35.01967319997493,35.01967319997493,35.20405160001246,l,0.17981949995737523,None,23,001,2024-11-20_20h51.33.321,delay discounting task,2024.1.5,None,2024-11-20 20h51.43.163944 +0530,
40,55,62,3,0,21,3,35.21963700000197,,35.20469939999748,35.21963700000197,36.21947900002124,36.21947900002124,36.21947900002124,36.670749599987175,l,0.43399030005093664,None,23,001,2024-11-20_20h51.33.321,delay discounting task,2024.1.5,None,2024-11-20 20h51.43.163944 +0530,
11,30,7,3,1,22,0,36.68631830002414,,36.671433500014246,36.68631830002414,37.68642559996806,37.68642559996806,37.68642559996806,38.137560300005134,l,0.4472053999779746,None,23,001,2024-11-20_20h51.33.321,delay discounting task,2024.1.5,None,2024-11-20 20h51.43.163944 +0530,
67,75,119,3,2,23,5,38.15292610001052,,38.138138799986336,38.15292610001052,39.15309330000309,39.15309330000309,39.15309330000309,39.52062720002141,l,0.3584216999588534,None,23,001,2024-11-20_20h51.33.321,delay discounting task,2024.1.5,None,2024-11-20 20h51.43.163944 +0530,
49,60,89,3,3,24,4,39.53623049997259,,39.5212954999879,39.53623049997259,40.5365010999958,40.5365010999958,40.5365010999958,41.07121670001652,l,0.5336259999894537,None,23,001,2024-11-20_20h51.33.321,delay discounting task,2024.1.5,None,2024-11-20 20h51.43.163944 +0530,
78,80,162,3,4,25,6,41.08661679999204,,41.07182900002226,41.08661679999204,42.08663749997504,42.08663749997504,42.08663749997504,42.53765349998139,l,0.44891509995795786,None,23,001,2024-11-20_20h51.33.321,delay discounting task,2024.1.5,None,2024-11-20 20h51.43.163944 +0530,
15,35,13,3,5,26,1,42.553162099968176,,42.53822749998653,42.553162099968176,43.55308500002138,43.55308500002138,43.55308500002138,43.787686399999075,t,0.23044839996146038,None,23,001,2024-11-20_20h51.33.321,delay discounting task,2024.1.5,None,2024-11-20 20h51.43.163944 +0530,
27,50,21,3,6,27,2,43.80328059999738,,43.78825979999965,43.80328059999738,44.80336710001575,44.80336710001575,44.80336710001575,45.35433559998637,t,0.5475312999915332,None,23,001,2024-11-20_20h51.33.321,delay discounting task,2024.1.5,None,2024-11-20 20h51.43.163944 +0530,
67,75,119,4,0,28,5,45.3698841999867,,45.35501509997994,45.3698841999867,46.369960899988655,46.369960899988655,46.369960899988655,46.73773649998475,t,0.3588258999516256,None,23,001,2024-11-20_20h51.33.321,delay discounting task,2024.1.5,None,2024-11-20 20h51.43.163944 +0530,
40,55,62,4,1,29,3,46.75330560002476,,46.738412800012156,46.75330560002476,47.75333620002493,47.75333620002493,47.75333620002493,48.155952300003264,l,0.4006824000389315,None,23,001,2024-11-20_20h51.33.321,delay discounting task,2024.1.5,None,2024-11-20 20h51.43.163944 +0530,
11,30,7,4,2,30,0,48.17275049997261,,48.157540199987125,48.17275049997261,49.170049000007566,49.170049000007566,49.18678029999137,49.47124149999581,l,0.2988240999984555,None,23,001,2024-11-20_20h51.33.321,delay discounting task,2024.1.5,None,2024-11-20 20h51.43.163944 +0530,
49,60,89,4,3,31,4,49.48669879999943,,49.47182310000062,49.48669879999943,50.48675189999631,50.48675189999631,50.48675189999631,50.77115300000878,t,0.2684305000002496,None,23,001,2024-11-20_20h51.33.321,delay discounting task,2024.1.5,None,2024-11-20 20h51.43.163944 +0530,
78,80,162,4,4,32,6,50.78685179998865,,50.771828999975696,50.78685179998865,51.78688729996793,51.78688729996793,51.78688729996793,52.17119089997141,t,0.3699686999898404,None,23,001,2024-11-20_20h51.33.321,delay discounting task,2024.1.5,None,2024-11-20 20h51.43.163944 +0530,
27,50,21,4,5,33,2,52.186759800009895,,52.171809200022835,52.186759800009895,53.18692369997734,53.18692369997734,53.18692369997734,53.554681300011,l,0.3544638999737799,None,23,001,2024-11-20_20h51.33.321,delay discounting task,2024.1.5,None,2024-11-20 20h51.43.163944 +0530,
15,35,13,4,6,34,1,53.5701226000092,,53.555261500005145,53.5701226000092,54.570201199967414,54.570201199967414,54.570201199967414,55.171089500014205,l,0.5838031999883242,None,23,001,2024-11-20_20h51.33.321,delay discounting task,2024.1.5,None,2024-11-20 20h51.43.163944 +0530,
40,55,62,5,0,35,3,55.18677759997081,,55.17174479999812,55.18677759997081,56.186920600011945,56.186920600011945,56.186920600011945,56.571325699973386,t,0.36708890000591055,None,23,001,2024-11-20_20h51.33.321,delay discounting task,2024.1.5,None,2024-11-20 20h51.43.163944 +0530,
11,30,7,5,1,36,0,56.58688259997871,,56.571945199975744,56.58688259997871,57.58706069999607,57.58706069999607,57.58706069999607,57.938179399992805,t,0.33765900001162663,None,23,001,2024-11-20_20h51.33.321,delay discounting task,2024.1.5,None,2024-11-20 20h51.43.163944 +0530,
67,75,119,5,2,37,5,57.95359729998745,,57.93876200000523,57.95359729998745,58.953828700003214,58.953828700003214,58.953828700003214,59.73823869996704,t,0.7744991999934427,None,23,001,2024-11-20_20h51.33.321,delay discounting task,2024.1.5,None,2024-11-20 20h51.43.163944 +0530,
78,80,162,5,3,38,6,59.753788199974224,,59.73907070001587,59.753788199974224,60.753836299991235,60.753836299991235,60.753836299991235,61.05506189999869,l,0.2998998000402935,None,23,001,2024-11-20_20h51.33.321,delay discounting task,2024.1.5,None,2024-11-20 20h51.43.163944 +0530,
15,35,13,5,4,39,1,61.07054099999368,,61.05589519999921,61.07054099999368,62.07048980001127,62.07048980001127,62.07048980001127,62.287936299981084,l,0.20709370000986382,None,23,001,2024-11-20_20h51.33.321,delay discounting task,2024.1.5,None,2024-11-20 20h51.43.163944 +0530,
27,50,21,5,5,40,2,62.303775499982294,,62.28854779998073,62.303775499982294,63.303820199973416,63.303820199973416,63.303820199973416,63.604912300012074,t,0.2921999000245705,None,23,001,2024-11-20_20h51.33.321,delay discounting task,2024.1.5,None,2024-11-20 20h51.43.163944 +0530,
49,60,89,5,6,41,4,63.62038779997965,,63.60549119999632,63.62038779997965,64.62047660001554,64.62047660001554,64.62047660001554,65.18833630002337,t,0.551364500017371,None,23,001,2024-11-20_20h51.33.321,delay discounting task,2024.1.5,None,2024-11-20 20h51.43.163944 +0530,
27,50,21,6,0,42,2,65.20376810000744,,65.18891610001447,65.20376810000744,66.20392499997979,66.20392499997979,66.20392499997979,66.6550163999782,l,0.4366607999545522,None,23,001,2024-11-20_20h51.33.321,delay discounting task,2024.1.5,None,2024-11-20 20h51.43.163944 +0530,
11,30,7,6,1,43,0,66.67051059997175,,66.65559530002065,66.67051059997175,67.67068109998945,67.67068109998945,67.67068109998945,68.15514380001696,l,0.4795194999896921,None,23,001,2024-11-20_20h51.33.321,delay discounting task,2024.1.5,None,2024-11-20 20h51.43.163944 +0530,
40,55,62,6,2,44,3,68.17067049996695,,68.1557208999875,68.17067049996695,69.17044600000372,69.17044600000372,69.17044600000372,69.40498699998716,t,0.22598849999485537,None,23,001,2024-11-20_20h51.33.321,delay discounting task,2024.1.5,None,2024-11-20 20h51.43.163944 +0530,
78,80,162,6,3,45,6,69.42069499997888,,69.40556350001134,69.42069499997888,70.42066539998632,70.42066539998632,70.42066539998632,70.83846280002035,l,0.4129059999831952,None,23,001,2024-11-20_20h51.33.321,delay discounting task,2024.1.5,None,2024-11-20 20h51.43.163944 +0530,
67,75,119,6,4,46,5,70.85393330000807,,70.83903959998861,70.85393330000807,71.85399450000841,71.85399450000841,71.85399450000841,72.77178999996977,t,0.9030077999923378,None,23,001,2024-11-20_20h51.33.321,delay discounting task,2024.1.5,None,2024-11-20 20h51.43.163944 +0530,
49,60,89,6,5,47,4,72.78729519998888,,72.77236160001485,72.78729519998888,73.78734310000436,73.78734310000436,73.78734310000436,74.20524649997242,l,0.40202969999518245,None,23,001,2024-11-20_20h51.33.321,delay discounting task,2024.1.5,None,2024-11-20 20h51.43.163944 +0530,
15,35,13,6,6,48,1,74.22058859997196,,74.20582179998746,74.22058859997196,75.22084530000575,75.22084530000575,75.22084530000575,76.57205860002432,t,1.3355868000071496,None,23,001,2024-11-20_20h51.33.321,delay discounting task,2024.1.5,None,2024-11-20 20h51.43.163944 +0530,
15,35,13,7,0,49,1,76.5874446000089,,76.57264650001889,76.5874446000089,77.58741279999958,77.58741279999958,77.58741279999958,78.25511829997413,l,0.664811099995859,None,23,001,2024-11-20_20h51.33.321,delay discounting task,2024.1.5,None,2024-11-20 20h51.43.163944 +0530,
27,50,21,7,1,50,2,78.27094680001028,,78.2556929999846,78.27094680001028,79.27094209997449,79.27094209997449,79.27094209997449,79.42165309999837,l,0.1469444000395015,None,23,001,2024-11-20_20h51.33.321,delay discounting task,2024.1.5,None,2024-11-20 20h51.43.163944 +0530,
78,80,162,7,2,51,6,79.4373990999884,,79.4223720000009,79.4373990999884,80.43767650000518,80.43767650000518,80.43767650000518,80.72207020001952,l,0.2701167000341229,None,23,001,2024-11-20_20h51.33.321,delay discounting task,2024.1.5,None,2024-11-20 20h51.43.163944 +0530,
67,75,119,7,3,52,5,80.73764160001883,,80.7226476999931,80.73764160001883,81.73772779997671,81.73772779997671,81.73772779997671,82.72214670001995,t,0.9810953999985941,None,23,001,2024-11-20_20h51.33.321,delay discounting task,2024.1.5,None,2024-11-20 20h51.43.163944 +0530,
40,55,62,7,4,53,3,82.73764780000784,,82.72280160000082,82.73764780000784,83.73773439996876,83.73773439996876,83.73773439996876,84.07219590002205,l,0.3245310999918729,None,23,001,2024-11-20_20h51.33.321,delay discounting task,2024.1.5,None,2024-11-20 20h51.43.163944 +0530,
49,60,89,7,5,54,4,84.08752230001846,,84.07277029997203,84.08752230001846,85.08781389996875,85.08781389996875,85.08781389996875,85.25560510001378,t,0.15051279996987432,None,23,001,2024-11-20_20h51.33.321,delay discounting task,2024.1.5,None,2024-11-20 20h51.43.163944 +0530,
11,30,7,7,6,55,0,85.27110519999405,,85.25656279997202,85.27110519999405,86.27121699997224,86.27121699997224,86.27121699997224,86.3390703999903,t,0.06675579998409376,None,23,001,2024-11-20_20h51.33.321,delay discounting task,2024.1.5,None,2024-11-20 20h51.43.163944 +0530,
11,30,7,8,0,56,0,86.35431339999195,,86.33976659999462,86.35431339999195,87.35424880002392,87.35424880002392,87.35424880002392,87.40544130001217,t,0.03797070001019165,None,23,001,2024-11-20_20h51.33.321,delay discounting task,2024.1.5,None,2024-11-20 20h51.43.163944 +0530,
78,80,162,8,1,57,6,87.4211238999851,,87.40599850000581,87.4211238999851,88.42109159997199,88.42109159997199,88.42109159997199,88.62221699999645,l,0.19799280003644526,None,23,001,2024-11-20_20h51.33.321,delay discounting task,2024.1.5,None,2024-11-20 20h51.43.163944 +0530,
67,75,119,8,2,58,5,88.63783040002454,,88.62288589996751,88.63783040002454,89.63784819998546,89.63784819998546,89.63784819998546,89.7222577999928,l,0.07366539997747168,None,23,001,2024-11-20_20h51.33.321,delay discounting task,2024.1.5,None,2024-11-20 20h51.43.163944 +0530,
27,50,21,8,3,59,2,89.73776430002181,,89.72293920000084,89.73776430002181,90.73794389999239,90.73794389999239,90.73794389999239,90.88895150000462,l,None,None,23,001,2024-11-20_20h51.33.321,delay discounting task,2024.1.5,None,2024-11-20 20h51.43.163944 +0530,
40,55,62,8,4,60,3,90.90438030002406,,90.88973900000565,90.90438030002406,91.90459920000285,91.90459920000285,91.90459920000285,93.03923860000214,l,1.1296186000108719,None,23,001,2024-11-20_20h51.33.321,delay discounting task,2024.1.5,None,2024-11-20 20h51.43.163944 +0530,
15,35,13,8,5,61,1,93.05458310001995,,93.03979680000339,93.05458310001995,94.054714399972,94.054714399972,94.054714399972,94.4228578999755,t,0.3546335999853909,None,23,001,2024-11-20_20h51.33.321,delay discounting task,2024.1.5,None,2024-11-20 20h51.43.163944 +0530,
49,60,89,8,6,62,4,94.43800610001199,,94.42390799999703,94.43800610001199,95.43807789997663,95.43807789997663,95.43807789997663,95.78928700002143,t,0.3498276000027545,None,23,001,2024-11-20_20h51.33.321,delay discounting task,2024.1.5,None,2024-11-20 20h51.43.163944 +0530,
78,80,162,9,0,63,6,95.80461059999652,,95.78984260000288,95.80461059999652,96.80487280001398,96.80487280001398,96.80487280001398,97.13896750001004,l,0.3267543000401929,None,23,001,2024-11-20_20h51.33.321,delay discounting task,2024.1.5,None,2024-11-20 20h51.43.163944 +0530,
27,50,21,9,1,64,2,97.15470349998213,,97.13955889997305,97.15470349998213,98.15483219997259,98.15483219997259,98.15483219997259,98.48961280001095,t,0.3278829999617301,None,23,001,2024-11-20_20h51.33.321,delay discounting task,2024.1.5,None,2024-11-20 20h51.43.163944 +0530,
40,55,62,9,2,65,3,98.50478000001749,,98.49061619996792,98.50478000001749,99.5049329000176,99.5049329000176,99.5049329000176,99.82252609997522,t,0.3161415999638848,None,23,001,2024-11-20_20h51.33.321,delay discounting task,2024.1.5,None,2024-11-20 20h51.43.163944 +0530,
15,35,13,9,3,66,1,99.83830250002211,,99.82303269999102,99.83830250002211,100.83813440002268,100.83813440002268,100.83813440002268,101.105909099977,l,0.2566615999676287,None,23,001,2024-11-20_20h51.33.321,delay discounting task,2024.1.5,None,2024-11-20 20h51.43.163944 +0530,
67,75,119,9,4,67,5,101.12151969998376,,101.106469499995,101.12151969998376,102.12164420000045,102.12164420000045,102.12164420000045,102.6892626999761,l,0.5577588999876752,None,23,001,2024-11-20_20h51.33.321,delay discounting task,2024.1.5,None,2024-11-20 20h51.43.163944 +0530,
11,30,7,9,5,68,0,102.70497570000589,,102.68991040001856,102.70497570000589,103.70476709998911,103.70476709998911,103.70476709998911,103.88936500001,l,0.1734763000276871,None,23,001,2024-11-20_20h51.33.321,delay discounting task,2024.1.5,None,2024-11-20 20h51.43.163944 +0530,
49,60,89,9,6,69,4,103.90488699998241,,103.8899324000231,103.90488699998241,104.90493630000856,104.90493630000856,104.90493630000856,105.3061052999692,l,0.39526520000072196,None,23,001,2024-11-20_20h51.33.321,delay discounting task,2024.1.5,None,2024-11-20 20h51.43.163944 +0530,
40,55,62,10,0,70,3,105.32165870000608,,105.30665799998678,105.32165870000608,106.32168029999593,106.32168029999593,106.32168029999593,106.68940480001038,t,0.3606992000131868,None,23,001,2024-11-20_20h51.33.321,delay discounting task,2024.1.5,None,2024-11-20 20h51.43.163944 +0530,
49,60,89,10,1,71,4,106.70503299997654,,106.6899953999673,106.70503299997654,107.70497820002493,107.70497820002493,107.70497820002493,108.50594260002254,t,0.7920355999958701,None,23,001,2024-11-20_20h51.33.321,delay discounting task,2024.1.5,None,2024-11-20 20h51.43.163944 +0530,
11,30,7,10,2,72,0,108.52181940001901,,108.50664819998201,108.52181940001901,109.52154519996839,109.52154519996839,109.52154519996839,109.77272299997276,t,0.24075769999762997,None,23,001,2024-11-20_20h51.33.321,delay discounting task,2024.1.5,None,2024-11-20 20h51.43.163944 +0530,
67,75,119,10,3,73,5,109.78841759997886,,109.77333940000972,109.78841759997886,110.78852649999317,110.78852649999317,110.78852649999317,112.30607370001962,l,1.5130954999476671,None,23,001,2024-11-20_20h51.33.321,delay discounting task,2024.1.5,None,2024-11-20 20h51.43.163944 +0530,
27,50,21,10,4,74,2,112.32185489998665,,112.30667479999829,112.32185489998665,113.32203159999335,113.32203159999335,113.32203159999335,113.43967960000737,t,0.10546290001366287,None,23,001,2024-11-20_20h51.33.321,delay discounting task,2024.1.5,None,2024-11-20 20h51.43.163944 +0530,
15,35,13,10,5,75,1,113.45514799997909,,113.44023579999339,113.45514799997909,114.45537380001042,114.45537380001042,114.45537380001042,114.70618639996974,t,0.2384005999774672,None,23,001,2024-11-20_20h51.33.321,delay discounting task,2024.1.5,None,2024-11-20 20h51.43.163944 +0530,
78,80,162,10,6,76,6,114.72188440000173,,114.70674920000602,114.72188440000173,115.72198380000191,115.72198380000191,115.72198380000191,115.73951079999097,l,0.014737199991941452,None,23,001,2024-11-20_20h51.33.321,delay discounting task,2024.1.5,None,2024-11-20 20h51.43.163944 +0530,
49,60,89,11,0,77,4,115.7552757000085,,115.74008979997598,115.7552757000085,116.75534869998228,116.75534869998228,116.75534869998228,116.9897251999937,t,0.2254213999840431,None,23,001,2024-11-20_20h51.33.321,delay discounting task,2024.1.5,None,2024-11-20 20h51.43.163944 +0530,
11,30,7,11,1,78,0,117.00535009999294,,116.99028440000257,117.00535009999294,118.00548039999558,118.00548039999558,118.00548039999558,118.62321450002491,t,0.6073817000142299,None,23,001,2024-11-20_20h51.33.321,delay discounting task,2024.1.5,None,2024-11-20 20h51.43.163944 +0530,
40,55,62,11,2,79,3,118.6386120999814,,118.62378859997261,118.6386120999814,119.63860359997489,119.63860359997489,119.63860359997489,120.1900975999888,t,0.5504181000287645,None,23,001,2024-11-20_20h51.33.321,delay discounting task,2024.1.5,None,2024-11-20 20h51.43.163944 +0530,
67,75,119,11,3,80,5,120.20534739998402,,120.19071320001967,120.20534739998402,121.20548910001526,121.20548910001526,121.20548910001526,121.3065612000064,l,0.0974222999648191,None,23,001,2024-11-20_20h51.33.321,delay discounting task,2024.1.5,None,2024-11-20 20h51.43.163944 +0530,
78,80,162,11,4,81,6,121.32220619998407,,121.30783679999877,121.32220619998407,122.32213410001714,122.32213410001714,122.32213410001714,122.48985329997959,t,0.1648579000029713,None,23,001,2024-11-20_20h51.33.321,delay discounting task,2024.1.5,None,2024-11-20 20h51.43.163944 +0530,
15,35,13,11,5,82,1,122.5054567999905,,122.49041139998008,122.5054567999905,123.50552160001826,123.50552160001826,123.50552160001826,123.65644390002126,l,0.1395005999947898,None,23,001,2024-11-20_20h51.33.321,delay discounting task,2024.1.5,None,2024-11-20 20h51.43.163944 +0530,
27,50,21,11,6,83,2,123.6721401999821,,123.65710850001778,123.6721401999821,124.67223759996705,124.67223759996705,124.67223759996705,124.8901060000062,t,0.21191389998421073,None,23,001,2024-11-20_20h51.33.321,delay discounting task,2024.1.5,None,2024-11-20 20h51.43.163944 +0530,
15,35,13,12,0,84,1,124.90528790000826,,124.8907584999688,124.90528790000826,125.90547350002453,125.90547350002453,125.90547350002453,126.22513779997826,t,0.3129340999876149,None,23,001,2024-11-20_20h51.33.321,delay discounting task,2024.1.5,None,2024-11-20 20h51.43.163944 +0530,
40,55,62,12,1,85,3,126.2439171000151,,126.22705649997806,126.2439171000151,127.23904600000242,127.23904600000242,127.25563600001624,127.42356740002288,l,None,None,23,001,2024-11-20_20h51.33.321,delay discounting task,2024.1.5,None,2024-11-20 20h51.43.163944 +0530,
11,30,7,12,2,86,0,127.43894790002378,,127.42427590000443,127.43894790002378,128.43884469999466,128.43884469999466,128.43884469999466,128.5914472999866,t,0.14490459999069571,None,23,001,2024-11-20_20h51.33.321,delay discounting task,2024.1.5,None,2024-11-20 20h51.43.163944 +0530,
78,80,162,12,3,87,6,128.60803679999663,,128.59299440000905,128.60803679999663,129.60568410000997,129.60568410000997,129.6222988999798,130.09001539996825,t,0.46813819999806583,None,23,001,2024-11-20_20h51.33.321,delay discounting task,2024.1.5,None,2024-11-20 20h51.43.163944 +0530,
27,50,21,12,4,88,2,130.1056870999746,,130.09057140001096,130.1056870999746,131.105711399985,131.105711399985,131.105711399985,131.59028549998766,t,0.4797353000030853,None,23,001,2024-11-20_20h51.33.321,delay discounting task,2024.1.5,None,2024-11-20 20h51.43.163944 +0530,
49,60,89,12,5,89,4,131.6057777000242,,131.5908519999939,131.6057777000242,132.60554730001604,132.60554730001604,132.60554730001604,133.39023710001493,t,0.7757953000254929,None,23,001,2024-11-20_20h51.33.321,delay discounting task,2024.1.5,None,2024-11-20 20h51.43.163944 +0530,
67,75,119,12,6,90,5,133.40568189998157,,133.39079959999071,133.40568189998157,134.40569520002464,134.40569520002464,134.40569520002464,134.72366720001446,l,0.3111390000558458,None,23,001,2024-11-20_20h51.33.321,delay discounting task,2024.1.5,None,2024-11-20 20h51.43.163944 +0530,
11,30,7,13,0,91,0,134.73898590001045,,134.72422630002256,134.73898590001045,135.73918089998187,135.73918089998187,135.73918089998187,135.90689300000668,t,0.16259769996395335,None,23,001,2024-11-20_20h51.33.321,delay discounting task,2024.1.5,None,2024-11-20 20h51.43.163944 +0530,
40,55,62,13,1,92,3,135.92256749997614,,135.90744819998508,135.92256749997614,136.9223696999834,136.9223696999834,136.9223696999834,137.40698749996955,l,0.47973379999166355,None,23,001,2024-11-20_20h51.33.321,delay discounting task,2024.1.5,None,2024-11-20 20h51.43.163944 +0530,
78,80,162,13,2,93,6,137.42241180001292,,137.40787019999698,137.42241180001292,138.4226376999868,138.4226376999868,138.4226376999868,138.8737638000166,t,0.4412185000255704,None,23,001,2024-11-20_20h51.33.321,delay discounting task,2024.1.5,None,2024-11-20 20h51.43.163944 +0530,
15,35,13,13,3,94,1,138.88925249996828,,138.8744215000188,138.88925249996828,139.88931210001465,139.88931210001465,139.88931210001465,140.2902836999856,l,0.38998520001769066,None,23,001,2024-11-20_20h51.33.321,delay discounting task,2024.1.5,None,2024-11-20 20h51.43.163944 +0530,
27,50,21,13,4,95,2,140.3060144999763,,140.29151950002415,140.3060144999763,141.3059444000246,141.3059444000246,141.3059444000246,141.59034509997582,l,0.26888799999142066,None,23,001,2024-11-20_20h51.33.321,delay discounting task,2024.1.5,None,2024-11-20 20h51.43.163944 +0530,
49,60,89,13,5,96,4,141.60599750000983,,141.59090960002504,141.60599750000983,142.6061743000173,142.6061743000173,142.6061743000173,142.72389750002185,l,0.11273450002772734,None,23,001,2024-11-20_20h51.33.321,delay discounting task,2024.1.5,None,2024-11-20 20h51.43.163944 +0530,
67,75,119,13,6,97,5,142.73933860001853,,142.72454929997912,142.73933860001853,143.7393850000226,143.7393850000226,143.7393850000226,144.67383789998712,t,0.9213180999504402,None,23,001,2024-11-20_20h51.33.321,delay discounting task,2024.1.5,None,2024-11-20 20h51.43.163944 +0530,
49,60,89,14,0,98,4,144.68938629998593,,144.6743981000036,144.68938629998593,145.6894591000164,145.6894591000164,145.6894591000164,146.70715249999193,l,1.0099221999989823,None,23,001,2024-11-20_20h51.33.321,delay discounting task,2024.1.5,None,2024-11-20 20h51.43.163944 +0530,
27,50,21,14,1,99,2,146.72271659999387,,146.7077523000189,146.72271659999387,147.72296649997588,147.72296649997588,147.72296649997588,147.92403519997606,t,0.1863215999910608,None,23,001,2024-11-20_20h51.33.321,delay discounting task,2024.1.5,None,2024-11-20 20h51.43.163944 +0530,
67,75,119,14,2,100,5,147.939314200019,,147.92460399999982,147.939314200019,148.93969159998232,148.93969159998232,148.93969159998232,149.24077259999467,l,0.2849497999995947,None,23,001,2024-11-20_20h51.33.321,delay discounting task,2024.1.5,None,2024-11-20 20h51.43.163944 +0530,
40,55,62,14,3,101,3,149.25634660001379,,149.24142620002385,149.25634660001379,150.25637209997512,150.25637209997512,150.25637209997512,151.87409150000894,t,1.6049296999699436,None,23,001,2024-11-20_20h51.33.321,delay discounting task,2024.1.5,None,2024-11-20 20h51.43.163944 +0530,
78,80,162,14,4,102,6,151.88962249999167,,151.87468389997957,151.88962249999167,152.88970950001385,152.88970950001385,152.88970950001385,153.42399179999484,l,0.5302472999901511,None,23,001,2024-11-20_20h51.33.321,delay discounting task,2024.1.5,None,2024-11-20 20h51.43.163944 +0530,
11,30,7,14,5,103,0,153.43971870001405,,153.42464250000194,153.43971870001405,154.43979370000307,154.43979370000307,154.43979370000307,154.84087120002368,l,0.4000266999937594,None,23,001,2024-11-20_20h51.33.321,delay discounting task,2024.1.5,None,2024-11-20 20h51.43.163944 +0530,
15,35,13,14,6,104,1,154.8564215999795,,154.8414585000137,154.8564215999795,155.85650190000888,155.85650190000888,155.85650190000888,156.39085879997583,l,0.519524100003764,None,23,001,2024-11-20_20h51.33.321,delay discounting task,2024.1.5,None,2024-11-20 20h51.43.163944 +0530,
